XLabel,Wavenumber
YLabel,Absorbance
FileType,Absorbance
DisplayDirection,20300
PeakDirection,20312
899.790547,-0.000045
900.272750,0.001389
900.754953,0.001890
901.237156,0.000837
901.719359,0.000630
902.201562,0.000979
902.683764,0.000648
903.165967,0.000112
903.648170,-0.000861
904.130373,-0.001385
904.612576,-0.000313
905.094779,0.000041
905.576982,-0.000214
906.059184,0.001393
906.541387,0.003118
907.023590,0.002969
907.505793,0.001548
907.987996,0.000199
908.470199,-0.000430
908.952402,-0.000650
909.434605,-0.000499
909.916807,-0.000951
910.399010,-0.001966
910.881213,-0.001967
911.363416,-0.001156
911.845619,-0.000048
912.327822,0.000874
912.810025,0.001096
913.292227,0.000954
913.774430,0.000702
914.256633,0.000668
914.738836,0.000731
915.221039,0.000515
915.703242,-0.000177
916.185445,-0.001183
916.667648,-0.001584
917.149850,-0.001263
917.632053,-0.000595
918.114256,-0.000111
918.596459,-0.000161
919.078662,-0.000209
919.560865,-0.000428
920.043068,0.000065
920.525270,0.001449
921.007473,0.001123
921.489676,-0.000177
921.971879,-0.000264
922.454082,0.000376
922.936285,0.000670
923.418488,-0.000405
923.900690,-0.001320
924.382893,-0.000378
924.865096,0.000859
925.347299,0.001321
925.829502,0.001022
926.311705,0.000320
926.793908,-0.000158
927.276111,-0.000206
927.758313,0.000243
928.240516,0.000316
928.722719,-0.000231
929.204922,-0.000516
929.687125,-0.000399
930.169328,0.000324
930.651531,0.001041
931.133733,0.000956
931.615936,0.001044
932.098139,0.000949
932.580342,-0.000225
933.062545,-0.000957
933.544748,-0.000532
934.026951,-0.000420
934.509154,-0.001021
934.991356,-0.000518
935.473559,0.000960
935.955762,0.000998
936.437965,0.000227
936.920168,0.000161
937.402371,0.000291
937.884574,0.000306
938.366776,0.000177
938.848979,0.000336
939.331182,0.000723
939.813385,0.000479
940.295588,0.000141
940.777791,0.000120
941.259994,0.000263
941.742197,0.000855
942.224399,0.001082
942.706602,0.000348
943.188805,-0.000449
943.671008,-0.000809
944.153211,-0.000748
944.635414,-0.000472
945.117617,-0.000276
945.599819,-0.000098
946.082022,0.000063
946.564225,0.000443
947.046428,0.000830
947.528631,0.000426
948.010834,-0.000281
948.493037,-0.000497
948.975240,-0.000340
949.457442,-0.000025
949.939645,-0.000035
950.421848,-0.000506
950.904051,-0.000604
951.386254,-0.000375
951.868457,-0.000365
952.350660,-0.000083
952.832862,0.000080
953.315065,-0.000332
953.797268,-0.000368
954.279471,-0.000162
954.761674,-0.000201
955.243877,-0.000011
955.726080,0.000210
956.208282,0.000079
956.690485,-0.000056
957.172688,-0.000068
957.654891,-0.000166
958.137094,-0.000201
958.619297,-0.000172
959.101500,-0.000109
959.583703,0.000342
960.065905,0.000620
960.548108,0.000132
961.030311,-0.000255
961.512514,-0.000263
961.994717,-0.000404
962.476920,-0.000492
962.959123,-0.000450
963.441325,-0.000475
963.923528,-0.000398
964.405731,-0.000233
964.887934,-0.000306
965.370137,-0.000414
965.852340,-0.000227
966.334543,-0.000088
966.816746,-0.000180
967.298948,-0.000214
967.781151,-0.000080
968.263354,-0.000001
968.745557,-0.000099
969.227760,-0.000075
969.709963,0.000001
970.192166,-0.000164
970.674368,-0.000166
971.156571,0.000126
971.638774,0.000239
972.120977,0.000181
972.603180,0.000048
973.085383,-0.000186
973.567586,-0.000221
974.049789,-0.000292
974.531991,-0.000433
975.014194,-0.000054
975.496397,0.000293
975.978600,0.000149
976.460803,0.000015
976.943006,-0.000064
977.425209,-0.000159
977.907411,-0.000234
978.389614,-0.000233
978.871817,-0.000178
979.354020,-0.000360
979.836223,-0.000593
980.318426,-0.000475
980.800629,-0.000220
981.282831,-0.000054
981.765034,0.000157
982.247237,0.000214
982.729440,0.000092
983.211643,0.000065
983.693846,-0.000110
984.176049,-0.000317
984.658252,-0.000241
985.140454,-0.000213
985.622657,-0.000221
986.104860,-0.000019
986.587063,0.000049
987.069266,-0.000173
987.551469,-0.000182
988.033672,0.000058
988.515874,0.000076
988.998077,-0.000024
989.480280,0.000061
989.962483,0.000132
990.444686,-0.000194
990.926889,-0.000518
991.409092,-0.000345
991.891295,-0.000109
992.373497,-0.000025
992.855700,-0.000114
993.337903,-0.000326
993.820106,-0.000319
994.302309,-0.000301
994.784512,-0.000265
995.266715,-0.000081
995.748917,-0.000081
996.231120,-0.000207
996.713323,-0.000253
997.195526,-0.000255
997.677729,-0.000334
998.159932,-0.000345
998.642135,-0.000225
999.124338,-0.000280
999.606540,-0.000266
1000.088743,-0.000073
1000.570946,-0.000096
1001.053149,-0.000114
1001.535352,-0.000027
1002.017555,-0.000170
1002.499758,-0.000235
1002.981960,0.000012
1003.464163,0.000028
1003.946366,-0.000165
1004.428569,-0.000021
1004.910772,0.000160
1005.392975,0.000058
1005.875178,0.000130
1006.357381,0.000303
1006.839583,0.000101
1007.321786,-0.000113
1007.803989,-0.000194
1008.286192,-0.000386
1008.768395,-0.000275
1009.250598,0.000083
1009.732801,0.000234
1010.215003,0.000250
1010.697206,0.000125
1011.179409,0.000063
1011.661612,0.000161
1012.143815,0.000068
1012.626018,-0.000082
1013.108221,-0.000117
1013.590423,-0.000092
1014.072626,-0.000047
1014.554829,-0.000189
1015.037032,-0.000392
1015.519235,-0.000386
1016.001438,-0.000199
1016.483641,-0.000018
1016.965844,-0.000092
1017.448046,-0.000243
1017.930249,-0.000066
1018.412452,0.000203
1018.894655,0.000117
1019.376858,-0.000077
1019.859061,-0.000134
1020.341264,-0.000256
1020.823466,-0.000269
1021.305669,-0.000149
1021.787872,-0.000054
1022.270075,0.000097
1022.752278,-0.000025
1023.234481,-0.000203
1023.716684,-0.000073
1024.198887,-0.000068
1024.681089,-0.000091
1025.163292,0.000026
1025.645495,0.000155
1026.127698,0.000260
1026.609901,0.000180
1027.092104,0.000079
1027.574307,0.000025
1028.056509,0.000049
1028.538712,0.000126
1029.020915,-0.000113
1029.503118,-0.000322
1029.985321,-0.000182
1030.467524,-0.000034
1030.949727,0.000010
1031.431930,-0.000002
1031.914132,0.000047
1032.396335,0.000195
1032.878538,0.000216
1033.360741,-0.000042
1033.842944,-0.000260
1034.325147,-0.000120
1034.807350,-0.000024
1035.289552,-0.000106
1035.771755,-0.000020
1036.253958,-0.000013
1036.736161,-0.000164
1037.218364,-0.000072
1037.700567,0.000005
1038.182770,-0.000163
1038.664973,-0.000254
1039.147175,-0.000335
1039.629378,-0.000400
1040.111581,-0.000336
1040.593784,-0.000317
1041.075987,-0.000181
1041.558190,0.000002
1042.040393,-0.000013
1042.522595,0.000035
1043.004798,0.000086
1043.487001,-0.000119
1043.969204,-0.000221
1044.451407,-0.000071
1044.933610,-0.000147
1045.415813,-0.000348
1045.898015,-0.000282
1046.380218,-0.000198
1046.862421,-0.000188
1047.344624,-0.000176
1047.826827,-0.000233
1048.309030,-0.000257
1048.791233,-0.000175
1049.273436,0.000001
1049.755638,0.000119
1050.237841,0.000078
1050.720044,-0.000011
1051.202247,-0.000050
1051.684450,-0.000012
1052.166653,-0.000040
1052.648856,-0.000031
1053.131058,0.000099
1053.613261,0.000013
1054.095464,-0.000143
1054.577667,-0.000059
1055.059870,-0.000021
1055.542073,-0.000122
1056.024276,-0.000073
1056.506479,-0.000083
1056.988681,-0.000282
1057.470884,-0.000202
1057.953087,0.000006
1058.435290,-0.000015
1058.917493,-0.000025
1059.399696,0.000056
1059.881899,0.000164
1060.364101,0.000118
1060.846304,-0.000096
1061.328507,-0.000075
1061.810710,0.000075
1062.292913,0.000051
1062.775116,0.000034
1063.257319,0.000070
1063.739522,-0.000041
1064.221724,-0.000180
1064.703927,-0.000128
1065.186130,-0.000083
1065.668333,-0.000187
1066.150536,-0.000205
1066.632739,-0.000139
1067.114942,-0.000118
1067.597144,0.000025
1068.079347,0.000195
1068.561550,0.000081
1069.043753,-0.000045
1069.525956,0.000092
1070.008159,0.000213
1070.490362,0.000168
1070.972564,0.000083
1071.454767,-0.000011
1071.936970,-0.000156
1072.419173,-0.000218
1072.901376,-0.000098
1073.383579,-0.000017
1073.865782,-0.000018
1074.347985,0.000018
1074.830187,-0.000000
1075.312390,-0.000084
1075.794593,-0.000130
1076.276796,-0.000068
1076.758999,-0.000026
1077.241202,-0.000110
1077.723405,-0.000114
1078.205607,-0.000073
1078.687810,-0.000125
1079.170013,-0.000156
1079.652216,-0.000158
1080.134419,-0.000169
1080.616622,-0.000185
1081.098825,-0.000102
1081.581028,0.000062
1082.063230,0.000060
1082.545433,-0.000070
1083.027636,-0.000189
1083.509839,-0.000209
1083.992042,-0.000124
1084.474245,-0.000101
1084.956448,-0.000087
1085.438650,-0.000090
1085.920853,-0.000143
1086.403056,-0.000063
1086.885259,0.000046
1087.367462,0.000087
1087.849665,0.000063
1088.331868,-0.000081
1088.814071,-0.000125
1089.296273,-0.000050
1089.778476,-0.000035
1090.260679,0.000032
1090.742882,0.000057
1091.225085,-0.000116
1091.707288,-0.000212
1092.189491,-0.000157
1092.671693,-0.000170
1093.153896,-0.000232
1093.636099,-0.000202
1094.118302,-0.000080
1094.600505,-0.000052
1095.082708,-0.000081
1095.564911,-0.000016
1096.047114,0.000002
1096.529316,0.000010
1097.011519,0.000033
1097.493722,-0.000067
1097.975925,-0.000115
1098.458128,-0.000041
1098.940331,0.000024
1099.422534,0.000084
1099.904736,0.000111
1100.386939,0.000126
1100.869142,0.000193
1101.351345,0.000179
1101.833548,0.000008
1102.315751,-0.000101
1102.797954,0.000024
1103.280156,0.000130
1103.762359,-0.000032
1104.244562,-0.000125
1104.726765,-0.000003
1105.208968,-0.000017
1105.691171,-0.000055
1106.173374,0.000021
1106.655577,-0.000034
1107.137779,-0.000102
1107.619982,-0.000050
1108.102185,-0.000022
1108.584388,-0.000018
1109.066591,-0.000052
1109.548794,-0.000161
1110.030997,-0.000211
1110.513199,-0.000086
1110.995402,0.000080
1111.477605,0.000120
1111.959808,0.000031
1112.442011,-0.000107
1112.924214,-0.000117
1113.406417,-0.000015
1113.888620,0.000014
1114.370822,0.000013
1114.853025,0.000035
1115.335228,0.000089
1115.817431,0.000102
1116.299634,-0.000030
1116.781837,-0.000128
1117.264040,-0.000161
1117.746242,-0.000208
1118.228445,-0.000139
1118.710648,-0.000082
1119.192851,-0.000158
1119.675054,-0.000175
1120.157257,-0.000099
1120.639460,-0.000064
1121.121663,-0.000078
1121.603865,-0.000102
1122.086068,-0.000060
1122.568271,0.000062
1123.050474,-0.000012
1123.532677,-0.000202
1124.014880,-0.000188
1124.497083,-0.000184
1124.979285,-0.000183
1125.461488,-0.000125
1125.943691,-0.000247
1126.425894,-0.000289
1126.908097,-0.000188
1127.390300,-0.000178
1127.872503,-0.000173
1128.354706,-0.000126
1128.836908,-0.000070
1129.319111,-0.000093
1129.801314,-0.000124
1130.283517,-0.000068
1130.765720,-0.000085
1131.247923,-0.000104
1131.730126,-0.000051
1132.212328,-0.000034
1132.694531,-0.000041
1133.176734,-0.000018
1133.658937,0.000041
1134.141140,0.000042
1134.623343,-0.000005
1135.105546,-0.000006
1135.587748,0.000022
1136.069951,0.000047
1136.552154,0.000009
1137.034357,-0.000058
1137.516560,-0.000083
1137.998763,-0.000077
1138.480966,-0.000025
1138.963169,0.000037
1139.445371,0.000090
1139.927574,0.000111
1140.409777,0.000066
1140.891980,0.000051
1141.374183,0.000094
1141.856386,0.000056
1142.338589,-0.000077
1142.820791,-0.000124
1143.302994,-0.000115
1143.785197,-0.000151
1144.267400,-0.000118
1144.749603,-0.000052
1145.231806,-0.000048
1145.714009,-0.000107
1146.196212,-0.000177
1146.678414,-0.000137
1147.160617,-0.000072
1147.642820,-0.000044
1148.125023,-0.000040
1148.607226,-0.000095
1149.089429,-0.000107
1149.571632,-0.000117
1150.053834,-0.000123
1150.536037,-0.000086
1151.018240,-0.000123
1151.500443,-0.000116
1151.982646,-0.000030
1152.464849,-0.000032
1152.947052,-0.000123
1153.429255,-0.000218
1153.911457,-0.000207
1154.393660,-0.000103
1154.875863,-0.000068
1155.358066,-0.000096
1155.840269,-0.000059
1156.322472,-0.000022
1156.804675,-0.000125
1157.286877,-0.000234
1157.769080,-0.000205
1158.251283,-0.000153
1158.733486,-0.000122
1159.215689,-0.000055
1159.697892,-0.000096
1160.180095,-0.000223
1160.662298,-0.000162
1161.144500,-0.000088
1161.626703,-0.000155
1162.108906,-0.000147
1162.591109,-0.000149
1163.073312,-0.000167
1163.555515,-0.000053
1164.037718,-0.000032
1164.519920,-0.000160
1165.002123,-0.000207
1165.484326,-0.000166
1165.966529,-0.000116
1166.448732,-0.000126
1166.930935,-0.000174
1167.413138,-0.000094
1167.895340,0.000041
1168.377543,0.000048
1168.859746,-0.000015
1169.341949,-0.000073
1169.824152,-0.000083
1170.306355,-0.000012
1170.788558,0.000028
1171.270761,0.000013
1171.752963,-0.000000
1172.235166,-0.000021
1172.717369,-0.000005
1173.199572,-0.000012
1173.681775,-0.000088
1174.163978,-0.000098
1174.646181,-0.000076
1175.128383,-0.000147
1175.610586,-0.000236
1176.092789,-0.000202
1176.574992,-0.000078
1177.057195,-0.000053
1177.539398,-0.000110
1178.021601,-0.000129
1178.503804,-0.000129
1178.986006,-0.000209
1179.468209,-0.000269
1179.950412,-0.000142
1180.432615,-0.000047
1180.914818,-0.000089
1181.397021,-0.000088
1181.879224,-0.000025
1182.361426,0.000043
1182.843629,-0.000061
1183.325832,-0.000215
1183.808035,-0.000121
1184.290238,-0.000026
1184.772441,-0.000051
1185.254644,-0.000030
1185.736847,-0.000058
1186.219049,-0.000099
1186.701252,-0.000043
1187.183455,-0.000111
1187.665658,-0.000257
1188.147861,-0.000180
1188.630064,-0.000076
1189.112267,-0.000118
1189.594469,-0.000109
1190.076672,-0.000054
1190.558875,-0.000015
1191.041078,0.000047
1191.523281,-0.000004
1192.005484,-0.000137
1192.487687,-0.000108
1192.969889,-0.000097
1193.452092,-0.000177
1193.934295,-0.000107
1194.416498,-0.000072
1194.898701,-0.000128
1195.380904,-0.000082
1195.863107,-0.000020
1196.345310,-0.000005
1196.827512,-0.000080
1197.309715,-0.000180
1197.791918,-0.000157
1198.274121,-0.000139
1198.756324,-0.000147
1199.238527,-0.000080
1199.720730,-0.000063
1200.202932,-0.000125
1200.685135,-0.000159
1201.167338,-0.000206
1201.649541,-0.000209
1202.131744,-0.000088
1202.613947,-0.000041
1203.096150,-0.000114
1203.578353,-0.000134
1204.060555,-0.000052
1204.542758,0.000025
1205.024961,-0.000041
1205.507164,-0.000096
1205.989367,-0.000054
1206.471570,-0.000065
1206.953773,-0.000057
1207.435975,-0.000049
1207.918178,-0.000102
1208.400381,-0.000105
1208.882584,-0.000068
1209.364787,-0.000040
1209.846990,-0.000060
1210.329193,-0.000061
1210.811396,0.000037
1211.293598,0.000077
1211.775801,-0.000004
1212.258004,-0.000071
1212.740207,-0.000066
1213.222410,-0.000051
1213.704613,-0.000066
1214.186816,-0.000088
1214.669018,-0.000130
1215.151221,-0.000160
1215.633424,-0.000077
1216.115627,0.000025
1216.597830,0.000029
1217.080033,0.000020
1217.562236,0.000019
1218.044439,-0.000001
1218.526641,-0.000024
1219.008844,-0.000081
1219.491047,-0.000152
1219.973250,-0.000188
1220.455453,-0.000160
1220.937656,-0.000055
1221.419859,0.000044
1221.902061,0.000020
1222.384264,-0.000050
1222.866467,-0.000062
1223.348670,-0.000102
1223.830873,-0.000075
1224.313076,0.000053
1224.795279,-0.000021
1225.277481,-0.000187
1225.759684,-0.000162
1226.241887,-0.000101
1226.724090,-0.000107
1227.206293,-0.000120
1227.688496,-0.000115
1228.170699,-0.000110
1228.652902,-0.000161
1229.135104,-0.000177
1229.617307,-0.000133
1230.099510,-0.000155
1230.581713,-0.000214
1231.063916,-0.000209
1231.546119,-0.000113
1232.028322,-0.000077
1232.510524,-0.000129
1232.992727,-0.000071
1233.474930,-0.000003
1233.957133,-0.000009
1234.439336,0.000016
1234.921539,0.000084
1235.403742,0.000184
1235.885945,0.000208
1236.368147,0.000124
1236.850350,0.000030
1237.332553,-0.000027
1237.814756,-0.000045
1238.296959,-0.000093
1238.779162,-0.000133
1239.261365,-0.000073
1239.743567,0.000003
1240.225770,0.000012
1240.707973,-0.000051
1241.190176,-0.000167
1241.672379,-0.000169
1242.154582,-0.000013
1242.636785,0.000010
1243.118988,-0.000090
1243.601190,-0.000034
1244.083393,0.000071
1244.565596,0.000061
1245.047799,0.000012
1245.530002,-0.000025
1246.012205,-0.000031
1246.494408,-0.000035
1246.976610,-0.000008
1247.458813,0.000078
1247.941016,0.000057
1248.423219,-0.000040
1248.905422,-0.000006
1249.387625,0.000060
1249.869828,-0.000012
1250.352031,-0.000073
1250.834233,-0.000042
1251.316436,-0.000088
1251.798639,-0.000137
1252.280842,-0.000108
1252.763045,-0.000105
1253.245248,-0.000104
1253.727451,-0.000091
1254.209653,-0.000034
1254.691856,0.000043
1255.174059,0.000005
1255.656262,-0.000070
1256.138465,-0.000042
1256.620668,0.000003
1257.102871,-0.000061
1257.585073,-0.000085
1258.067276,-0.000016
1258.549479,0.000012
1259.031682,0.000004
1259.513885,-0.000023
1259.996088,-0.000007
1260.478291,0.000008
1260.960494,-0.000032
1261.442696,-0.000028
1261.924899,-0.000034
1262.407102,-0.000068
1262.889305,-0.000038
1263.371508,0.000039
1263.853711,0.000085
1264.335914,0.000069
1264.818116,0.000047
1265.300319,0.000021
1265.782522,-0.000016
1266.264725,-0.000021
1266.746928,0.000031
1267.229131,0.000095
1267.711334,0.000083
1268.193537,0.000043
1268.675739,0.000041
1269.157942,0.000061
1269.640145,0.000030
1270.122348,-0.000052
1270.604551,-0.000052
1271.086754,-0.000027
1271.568957,-0.000066
1272.051159,-0.000062
1272.533362,-0.000044
1273.015565,-0.000078
1273.497768,-0.000042
1273.979971,0.000039
1274.462174,-0.000022
1274.944377,-0.000126
1275.426580,-0.000115
1275.908782,-0.000081
1276.390985,-0.000081
1276.873188,-0.000162
1277.355391,-0.000244
1277.837594,-0.000143
1278.319797,-0.000007
1278.802000,0.000050
1279.284202,0.000060
1279.766405,0.000031
1280.248608,0.000028
1280.730811,-0.000022
1281.213014,-0.000040
1281.695217,0.000055
1282.177420,0.000061
1282.659622,-0.000011
1283.141825,-0.000007
1283.624028,0.000083
1284.106231,0.000085
1284.588434,-0.000040
1285.070637,-0.000075
1285.552840,-0.000022
1286.035043,0.000006
1286.517245,-0.000033
1286.999448,-0.000081
1287.481651,-0.000030
1287.963854,-0.000060
1288.446057,-0.000189
1288.928260,-0.000157
1289.410463,-0.000047
1289.892665,-0.000052
1290.374868,-0.000083
1290.857071,-0.000021
1291.339274,0.000075
1291.821477,0.000097
1292.303680,0.000061
1292.785883,0.000057
1293.268086,0.000108
1293.750288,0.000099
1294.232491,0.000000
1294.714694,0.000046
1295.196897,0.000201
1295.679100,0.000164
1296.161303,0.000031
1296.643506,0.000051
1297.125708,0.000135
1297.607911,0.000098
1298.090114,0.000032
1298.572317,0.000058
1299.054520,0.000125
1299.536723,0.000210
1300.018926,0.000191
1300.501129,0.000077
1300.983331,0.000061
1301.465534,0.000065
1301.947737,0.000097
1302.429940,0.000187
1302.912143,0.000113
1303.394346,-0.000021
1303.876549,0.000012
1304.358751,0.000048
1304.840954,-0.000074
1305.323157,-0.000178
1305.805360,-0.000109
1306.287563,-0.000005
1306.769766,0.000035
1307.251969,0.000039
1307.734172,0.000022
1308.216374,0.000065
1308.698577,0.000127
1309.180780,0.000086
1309.662983,0.000034
1310.145186,0.000007
1310.627389,0.000016
1311.109592,0.000119
1311.591794,0.000084
1312.073997,-0.000105
1312.556200,-0.000129
1313.038403,-0.000013
1313.520606,0.000030
1314.002809,0.000030
1314.485012,0.000104
1314.967214,0.000125
1315.449417,0.000047
1315.931620,0.000077
1316.413823,0.000150
1316.896026,0.000149
1317.378229,0.000100
1317.860432,0.000007
1318.342635,-0.000067
1318.824837,-0.000145
1319.307040,-0.000146
1319.789243,-0.000021
1320.271446,0.000021
1320.753649,0.000054
1321.235852,0.000205
1321.718055,0.000193
1322.200257,-0.000060
1322.682460,-0.000141
1323.164663,0.000058
1323.646866,0.000184
1324.129069,0.000160
1324.611272,0.000113
1325.093475,0.000108
1325.575678,0.000141
1326.057880,0.000169
1326.540083,0.000224
1327.022286,0.000242
1327.504489,0.000183
1327.986692,0.000123
1328.468895,0.000157
1328.951098,0.000196
1329.433300,0.000008
1329.915503,-0.000109
1330.397706,0.000064
1330.879909,0.000128
1331.362112,0.000106
1331.844315,0.000138
1332.326518,0.000027
1332.808721,-0.000043
1333.290923,0.000096
1333.773126,0.000131
1334.255329,0.000023
1334.737532,0.000014
1335.219735,0.000098
1335.701938,0.000127
1336.184141,0.000026
1336.666343,-0.000025
1337.148546,0.000054
1337.630749,0.000039
1338.112952,-0.000055
1338.595155,-0.000174
1339.077358,-0.000210
1339.559561,-0.000062
1340.041764,0.000035
1340.523966,0.000104
1341.006169,0.000206
1341.488372,0.000203
1341.970575,0.000179
1342.452778,0.000145
1342.934981,0.000121
1343.417184,0.000173
1343.899386,0.000155
1344.381589,0.000081
1344.863792,0.000039
1345.345995,0.000008
1345.828198,0.000007
1346.310401,-0.000018
1346.792604,0.000030
1347.274806,0.000259
1347.757009,0.000353
1348.239212,0.000204
1348.721415,0.000062
1349.203618,0.000025
1349.685821,0.000216
1350.168024,0.000399
1350.650227,0.000229
1351.132429,0.000071
1351.614632,0.000065
1352.096835,0.000071
1352.579038,0.000154
1353.061241,0.000141
1353.543444,0.000068
1354.025647,0.000006
1354.507849,-0.000068
1354.990052,0.000047
1355.472255,0.000159
1355.954458,0.000130
1356.436661,0.000061
1356.918864,-0.000064
1357.401067,-0.000014
1357.883270,0.000205
1358.365472,0.000293
1358.847675,0.000245
1359.329878,0.000218
1359.812081,0.000194
1360.294284,0.000052
1360.776487,-0.000041
1361.258690,0.000021
1361.740892,0.000094
1362.223095,0.000100
1362.705298,-0.000100
1363.187501,-0.000265
1363.669704,-0.000070
1364.151907,0.000133
1364.634110,0.000147
1365.116313,0.000096
1365.598515,0.000055
1366.080718,0.000120
1366.562921,0.000201
1367.045124,0.000179
1367.527327,0.000115
1368.009530,0.000058
1368.491733,0.000084
1368.973935,0.000185
1369.456138,0.000206
1369.938341,0.000148
1370.420544,0.000138
1370.902747,0.000171
1371.384950,0.000120
1371.867153,0.000011
1372.349355,-0.000006
1372.831558,-0.000001
1373.313761,-0.000142
1373.795964,-0.000254
1374.278167,-0.000068
1374.760370,0.000180
1375.242573,0.000198
1375.724776,0.000137
1376.206978,0.000122
1376.689181,0.000107
1377.171384,0.000183
1377.653587,0.000262
1378.135790,0.000181
1378.617993,0.000156
1379.100196,0.000266
1379.582398,0.000307
1380.064601,0.000259
1380.546804,0.000164
1381.029007,0.000162
1381.511210,0.000304
1381.993413,0.000393
1382.475616,0.000399
1382.957819,0.000337
1383.440021,0.000292
1383.922224,0.000354
1384.404427,0.000332
1384.886630,0.000317
1385.368833,0.000398
1385.851036,0.000348
1386.333239,0.000193
1386.815441,-0.000040
1387.297644,-0.000280
1387.779847,-0.000163
1388.262050,0.000167
1388.744253,0.000288
1389.226456,0.000239
1389.708659,0.000228
1390.190862,0.000274
1390.673064,0.000260
1391.155267,0.000196
1391.637470,0.000104
1392.119673,0.000053
1392.601876,0.000206
1393.084079,0.000344
1393.566282,0.000219
1394.048484,-0.000053
1394.530687,-0.000223
1395.012890,-0.000051
1395.495093,0.000139
1395.977296,0.000104
1396.459499,0.000098
1396.941702,0.000144
1397.423905,0.000105
1397.906107,0.000124
1398.388310,0.000203
1398.870513,0.000048
1399.352716,-0.000078
1399.834919,0.000203
1400.317122,0.000358
1400.799325,0.000261
1401.281527,0.000308
1401.763730,0.000443
1402.245933,0.000525
1402.728136,0.000546
1403.210339,0.000504
1403.692542,0.000489
1404.174745,0.000402
1404.656947,0.000145
1405.139150,0.000015
1405.621353,0.000115
1406.103556,0.000163
1406.585759,0.000178
1407.067962,0.000262
1407.550165,0.000392
1408.032368,0.000488
1408.514570,0.000452
1408.996773,0.000429
1409.478976,0.000475
1409.961179,0.000433
1410.443382,0.000302
1410.925585,0.000268
1411.407788,0.000439
1411.889990,0.000581
1412.372193,0.000527
1412.854396,0.000434
1413.336599,0.000328
1413.818802,0.000250
1414.301005,0.000300
1414.783208,0.000405
1415.265411,0.000435
1415.747613,0.000352
1416.229816,0.000317
1416.712019,0.000301
1417.194222,0.000227
1417.676425,0.000217
1418.158628,0.000134
1418.640831,-0.000202
1419.123033,-0.000651
1419.605236,-0.000600
1420.087439,-0.000044
1420.569642,0.000205
1421.051845,0.000212
1421.534048,0.000323
1422.016251,0.000485
1422.498454,0.000536
1422.980656,0.000448
1423.462859,0.000246
1423.945062,0.000066
1424.427265,0.000150
1424.909468,0.000317
1425.391671,0.000325
1425.873874,0.000330
1426.356076,0.000445
1426.838279,0.000478
1427.320482,0.000299
1427.802685,0.000179
1428.284888,0.000230
1428.767091,0.000240
1429.249294,0.000139
1429.731497,0.000031
1430.213699,0.000100
1430.695902,0.000291
1431.178105,0.000435
1431.660308,0.000453
1432.142511,0.000395
1432.624714,0.000408
1433.106917,0.000416
1433.589119,0.000426
1434.071322,0.000458
1434.553525,0.000389
1435.035728,0.000268
1435.517931,0.000144
1436.000134,-0.000041
1436.482337,-0.000521
1436.964539,-0.000887
1437.446742,-0.000323
1437.928945,0.000293
1438.411148,0.000417
1438.893351,0.000479
1439.375554,0.000608
1439.857757,0.000633
1440.339960,0.000596
1440.822162,0.000491
1441.304365,0.000419
1441.786568,0.000440
1442.268771,0.000468
1442.750974,0.000488
1443.233177,0.000464
1443.715380,0.000426
1444.197582,0.000419
1444.679785,0.000387
1445.161988,0.000311
1445.644191,0.000295
1446.126394,0.000379
1446.608597,0.000370
1447.090800,0.000222
1447.573003,0.000027
1448.055205,-0.000036
1448.537408,0.000251
1449.019611,0.000478
1449.501814,0.000468
1449.984017,0.000510
1450.466220,0.000465
1450.948423,0.000320
1451.430625,0.000289
1451.912828,0.000249
1452.395031,0.000282
1452.877234,0.000425
1453.359437,0.000385
1453.841640,0.000233
1454.323843,0.000163
1454.806046,0.000045
1455.288248,-0.000149
1455.770451,-0.000210
1456.252654,-0.000488
1456.734857,-0.001264
1457.217060,-0.001151
1457.699263,-0.000413
1458.181466,-0.000222
1458.663668,-0.000194
1459.145871,-0.000099
1459.628074,0.000011
1460.110277,0.000266
1460.592480,0.000403
1461.074683,0.000345
1461.556886,0.000389
1462.039089,0.000511
1462.521291,0.000597
1463.003494,0.000663
1463.485697,0.000587
1463.967900,0.000389
1464.450103,0.000081
1464.932306,-0.000262
1465.414509,-0.000038
1465.896711,0.000396
1466.378914,0.000434
1466.861117,0.000370
1467.343320,0.000434
1467.825523,0.000517
1468.307726,0.000557
1468.789929,0.000554
1469.272131,0.000554
1469.754334,0.000512
1470.236537,0.000364
1470.718740,0.000145
1471.200943,-0.000050
1471.683146,-0.000340
1472.165349,-0.000573
1472.647552,-0.000276
1473.129754,-0.000163
1473.611957,-0.000337
1474.094160,0.000011
1474.576363,0.000306
1475.058566,0.000237
1475.540769,0.000114
1476.022972,-0.000129
1476.505174,-0.000105
1476.987377,0.000318
1477.469580,0.000525
1477.951783,0.000450
1478.433986,0.000377
1478.916189,0.000414
1479.398392,0.000454
1479.880595,0.000475
1480.362797,0.000518
1480.845000,0.000494
1481.327203,0.000425
1481.809406,0.000442
1482.291609,0.000512
1482.773812,0.000495
1483.256015,0.000393
1483.738217,0.000414
1484.220420,0.000529
1484.702623,0.000490
1485.184826,0.000404
1485.667029,0.000372
1486.149232,0.000348
1486.631435,0.000316
1487.113638,0.000082
1487.595840,-0.000056
1488.078043,0.000154
1488.560246,0.000206
1489.042449,0.000030
1489.524652,-0.000154
1490.006855,-0.000189
1490.489058,-0.000100
1490.971260,-0.000042
1491.453463,0.000164
1491.935666,0.000382
1492.417869,0.000412
1492.900072,0.000449
1493.382275,0.000510
1493.864478,0.000494
1494.346680,0.000400
1494.828883,0.000269
1495.311086,0.000177
1495.793289,-0.000100
1496.275492,-0.000533
1496.757695,-0.000361
1497.239898,0.000106
1497.722101,0.000309
1498.204303,0.000252
1498.686506,-0.000013
1499.168709,0.000010
1499.650912,0.000406
1500.133115,0.000588
1500.615318,0.000612
1501.097521,0.000621
1501.579723,0.000491
1502.061926,0.000417
1502.544129,0.000488
1503.026332,0.000474
1503.508535,0.000359
1503.990738,0.000267
1504.472941,0.000211
1504.955144,-0.000081
1505.437346,-0.000843
1505.919549,-0.001247
1506.401752,-0.000992
1506.883955,-0.001120
1507.366158,-0.001098
1507.848361,-0.000550
1508.330564,-0.000302
1508.812766,-0.000160
1509.294969,0.000101
1509.777172,0.000174
1510.259375,0.000154
1510.741578,0.000274
1511.223781,0.000434
1511.705984,0.000348
1512.188187,0.000044
1512.670389,0.000061
1513.152592,0.000282
1513.634795,0.000299
1514.116998,0.000320
1514.599201,0.000301
1515.081404,0.000198
1515.563607,0.000233
1516.045809,0.000084
1516.528012,-0.000250
1517.010215,-0.000387
1517.492418,-0.000373
1517.974621,-0.000067
1518.456824,0.000277
1518.939027,0.000314
1519.421230,0.000161
1519.903432,-0.000252
1520.385635,-0.000568
1520.867838,-0.000629
1521.350041,-0.000833
1521.832244,-0.000577
1522.314447,-0.000248
1522.796650,-0.000239
1523.278852,0.000049
1523.761055,0.000364
1524.243258,0.000310
1524.725461,0.000022
1525.207664,-0.000291
1525.689867,-0.000266
1526.172070,0.000119
1526.654272,0.000333
1527.136475,0.000244
1527.618678,0.000205
1528.100881,0.000313
1528.583084,0.000314
1529.065287,0.000343
1529.547490,0.000502
1530.029693,0.000511
1530.511895,0.000371
1530.994098,0.000297
1531.476301,0.000261
1531.958504,0.000218
1532.440707,0.000136
1532.922910,-0.000071
1533.405113,-0.000330
1533.887315,-0.000368
1534.369518,-0.000047
1534.851721,0.000280
1535.333924,0.000359
1535.816127,0.000376
1536.298330,0.000460
1536.780533,0.000474
1537.262736,0.000308
1537.744938,0.000038
1538.227141,-0.000272
1538.709344,-0.000807
1539.191547,-0.001263
1539.673750,-0.001077
1540.155953,-0.001022
1540.638156,-0.000876
1541.120358,-0.000322
1541.602561,-0.000336
1542.084764,-0.000802
1542.566967,-0.000538
1543.049170,-0.000055
1543.531373,0.000037
1544.013576,0.000091
1544.495779,0.000072
1544.977981,-0.000195
1545.460184,-0.000181
1545.942387,0.000198
1546.424590,0.000432
1546.906793,0.000504
1547.388996,0.000534
1547.871199,0.000544
1548.353401,0.000556
1548.835604,0.000524
1549.317807,0.000388
1549.800010,0.000200
1550.282213,0.000137
1550.764416,0.000262
1551.246619,0.000431
1551.728822,0.000544
1552.211024,0.000533
1552.693227,0.000362
1553.175430,0.000207
1553.657633,0.000065
1554.139836,-0.000258
1554.622039,-0.000311
1555.104242,0.000094
1555.586444,0.000304
1556.068647,0.000244
1556.550850,0.000107
1557.033053,-0.000319
1557.515256,-0.001080
1557.997459,-0.001578
1558.479662,-0.001725
1558.961864,-0.001467
1559.444067,-0.001051
1559.926270,-0.001158
1560.408473,-0.001035
1560.890676,-0.000194
1561.372879,0.000333
1561.855082,0.000463
1562.337285,0.000483
1562.819487,0.000482
1563.301690,0.000474
1563.783893,0.000454
1564.266096,0.000380
1564.748299,0.000234
1565.230502,0.000225
1565.712705,0.000417
1566.194907,0.000577
1566.677110,0.000623
1567.159313,0.000604
1567.641516,0.000608
1568.123719,0.000540
1568.605922,0.000288
1569.088125,0.000026
1569.570328,-0.000195
1570.052530,-0.000171
1570.534733,0.000227
1571.016936,0.000495
1571.499139,0.000562
1571.981342,0.000629
1572.463545,0.000650
1572.945748,0.000671
1573.427950,0.000718
1573.910153,0.000712
1574.392356,0.000636
1574.874559,0.000485
1575.356762,0.000260
1575.838965,-0.000155
1576.321168,-0.000455
1576.803371,0.000002
1577.285573,0.000496
1577.767776,0.000664
1578.249979,0.000752
1578.732182,0.000881
1579.214385,0.000974
1579.696588,0.000950
1580.178791,0.000930
1580.660993,0.001008
1581.143196,0.001058
1581.625399,0.001098
1582.107602,0.001089
1582.589805,0.001006
1583.072008,0.001010
1583.554211,0.001058
1584.036413,0.001110
1584.518616,0.001200
1585.000819,0.001291
1585.483022,0.001333
1585.965225,0.001296
1586.447428,0.001321
1586.929631,0.001415
1587.411834,0.001444
1587.894036,0.001426
1588.376239,0.001448
1588.858442,0.001578
1589.340645,0.001643
1589.822848,0.001589
1590.305051,0.001667
1590.787254,0.001792
1591.269456,0.001787
1591.751659,0.001760
1592.233862,0.001793
1592.716065,0.001872
1593.198268,0.001935
1593.680471,0.001939
1594.162674,0.001927
1594.644877,0.001883
1595.127079,0.001841
1595.609282,0.001859
1596.091485,0.001859
1596.573688,0.001881
1597.055891,0.001964
1597.538094,0.001988
1598.020297,0.002017
1598.502499,0.002133
1598.984702,0.002154
1599.466905,0.002044
1599.949108,0.001992
1600.431311,0.002029
1600.913514,0.002025
1601.395717,0.001979
1601.877920,0.002028
1602.360122,0.002145
1602.842325,0.002136
1603.324528,0.001989
1603.806731,0.001946
1604.288934,0.002044
1604.771137,0.002049
1605.253340,0.002006
1605.735542,0.002078
1606.217745,0.002052
1606.699948,0.001830
1607.182151,0.001691
1607.664354,0.001757
1608.146557,0.001907
1608.628760,0.001968
1609.110963,0.001801
1609.593165,0.001575
1610.075368,0.001566
1610.557571,0.001735
1611.039774,0.001878
1611.521977,0.001805
1612.004180,0.001576
1612.486383,0.001522
1612.968585,0.001646
1613.450788,0.001552
1613.932991,0.001283
1614.415194,0.001217
1614.897397,0.001200
1615.379600,0.001073
1615.861803,0.000909
1616.344005,0.000398
1616.826208,-0.000174
1617.308411,0.000156
1617.790614,0.000767
1618.272817,0.001164
1618.755020,0.001365
1619.237223,0.001461
1619.719426,0.001593
1620.201628,0.001721
1620.683831,0.001821
1621.166034,0.001888
1621.648237,0.001866
1622.130440,0.001880
1622.612643,0.001952
1623.094846,0.001755
1623.577048,0.001459
1624.059251,0.001748
1624.541454,0.002211
1625.023657,0.002302
1625.505860,0.002389
1625.988063,0.002520
1626.470266,0.002399
1626.952469,0.002348
1627.434671,0.002403
1627.916874,0.002169
1628.399077,0.002107
1628.881280,0.002472
1629.363483,0.002585
1629.845686,0.002435
1630.327889,0.002492
1630.810091,0.002491
1631.292294,0.002383
1631.774497,0.002452
1632.256700,0.002361
1632.738903,0.002158
1633.221106,0.002158
1633.703309,0.001954
1634.185512,0.001579
1634.667714,0.001316
1635.149917,0.000783
1635.632120,0.000381
1636.114323,0.000840
1636.596526,0.001251
1637.078729,0.001294
1637.560932,0.001326
1638.043134,0.001364
1638.525337,0.001461
1639.007540,0.001568
1639.489743,0.001434
1639.971946,0.001320
1640.454149,0.001430
1640.936352,0.001428
1641.418555,0.001276
1641.900757,0.001181
1642.382960,0.001129
1642.865163,0.001057
1643.347366,0.000985
1643.829569,0.000959
1644.311772,0.000862
1644.793975,0.000640
1645.276177,0.000363
1645.758380,-0.000040
1646.240583,-0.000199
1646.722786,0.000010
1647.204989,-0.000020
1647.687192,-0.000112
1648.169395,-0.000046
1648.651597,0.000115
1649.133800,0.000408
1649.616003,0.000492
1650.098206,0.000385
1650.580409,0.000324
1651.062612,0.000184
1651.544815,-0.000068
1652.027018,-0.000704
1652.509220,-0.001672
1652.991423,-0.001989
1653.473626,-0.001619
1653.955829,-0.001039
1654.438032,-0.000635
1654.920235,-0.000312
1655.402438,0.000115
1655.884640,0.000369
1656.366843,0.000459
1656.849046,0.000523
1657.331249,0.000520
1657.813452,0.000504
1658.295655,0.000449
1658.777858,0.000374
1659.260061,0.000384
1659.742263,0.000406
1660.224466,0.000453
1660.706669,0.000486
1661.188872,0.000379
1661.671075,0.000283
1662.153278,0.000156
1662.635481,-0.000179
1663.117683,-0.000247
1663.599886,0.000140
1664.082089,0.000411
1664.564292,0.000500
1665.046495,0.000527
1665.528698,0.000442
1666.010901,0.000362
1666.493104,0.000366
1666.975306,0.000375
1667.457509,0.000296
1667.939712,0.000130
1668.421915,0.000010
1668.904118,-0.000205
1669.386321,-0.000494
1669.868524,-0.000351
1670.350726,0.000018
1670.832929,0.000168
1671.315132,0.000085
1671.797335,0.000052
1672.279538,0.000220
1672.761741,0.000359
1673.243944,0.000370
1673.726146,0.000302
1674.208349,0.000232
1674.690552,0.000022
1675.172755,-0.000518
1675.654958,-0.000636
1676.137161,-0.000054
1676.619364,0.000354
1677.101567,0.000457
1677.583769,0.000474
1678.065972,0.000483
1678.548175,0.000509
1679.030378,0.000439
1679.512581,0.000266
1679.994784,0.000136
1680.476987,0.000064
1680.959189,0.000113
1681.441392,0.000254
1681.923595,0.000298
1682.405798,0.000100
1682.888001,-0.000356
1683.370204,-0.000723
1683.852407,-0.000788
1684.334610,-0.000901
1684.816812,-0.001002
1685.299015,-0.000664
1685.781218,-0.000205
1686.263421,0.000070
1686.745624,0.000199
1687.227827,0.000284
1687.710030,0.000348
1688.192232,0.000301
1688.674435,0.000210
1689.156638,0.000296
1689.638841,0.000371
1690.121044,0.000274
1690.603247,0.000313
1691.085450,0.000403
1691.567653,0.000351
1692.049855,0.000366
1692.532058,0.000394
1693.014261,0.000347
1693.496464,0.000354
1693.978667,0.000327
1694.460870,0.000147
1694.943073,-0.000166
1695.425275,-0.000728
1695.907478,-0.001259
1696.389681,-0.000822
1696.871884,-0.000201
1697.354087,-0.000048
1697.836290,-0.000029
1698.318493,-0.000022
1698.800696,-0.000155
1699.282898,-0.000523
1699.765101,-0.001209
1700.247304,-0.001771
1700.729507,-0.001605
1701.211710,-0.000905
1701.693913,-0.000184
1702.176116,0.000170
1702.658318,0.000194
1703.140521,0.000170
1703.622724,0.000163
1704.104927,0.000055
1704.587130,-0.000074
1705.069333,-0.000028
1705.551536,0.000015
1706.033738,-0.000117
1706.515941,-0.000177
1706.998144,0.000029
1707.480347,0.000244
1707.962550,0.000314
1708.444753,0.000295
1708.926956,0.000259
1709.409159,0.000275
1709.891361,0.000278
1710.373564,0.000256
1710.855767,0.000323
1711.337970,0.000385
1711.820173,0.000385
1712.302376,0.000313
1712.784579,0.000197
1713.266781,0.000142
1713.748984,0.000050
1714.231187,-0.000009
1714.713390,-0.000028
1715.195593,-0.000230
1715.677796,-0.000265
1716.159999,-0.000047
1716.642202,-0.000090
1717.124404,-0.000527
1717.606607,-0.000808
1718.088810,-0.000584
1718.571013,-0.000498
1719.053216,-0.000325
1719.535419,0.000131
1720.017622,0.000280
1720.499824,0.000205
1720.982027,0.000242
1721.464230,0.000296
1721.946433,0.000277
1722.428636,0.000275
1722.910839,0.000319
1723.393042,0.000292
1723.875245,0.000256
1724.357447,0.000306
1724.839650,0.000327
1725.321853,0.000288
1725.804056,0.000274
1726.286259,0.000321
1726.768462,0.000367
1727.250665,0.000355
1727.732867,0.000345
1728.215070,0.000345
1728.697273,0.000327
1729.179476,0.000261
1729.661679,0.000068
1730.143882,-0.000089
1730.626085,-0.000001
1731.108288,0.000104
1731.590490,0.000066
1732.072693,0.000006
1732.554896,-0.000105
1733.037099,-0.000483
1733.519302,-0.000870
1734.001505,-0.000881
1734.483708,-0.000970
1734.965910,-0.000818
1735.448113,-0.000169
1735.930316,0.000218
1736.412519,0.000278
1736.894722,0.000296
1737.376925,0.000321
1737.859128,0.000350
1738.341330,0.000377
1738.823533,0.000301
1739.305736,-0.000009
1739.787939,-0.000378
1740.270142,-0.000317
1740.752345,0.000012
1741.234548,0.000159
1741.716751,0.000158
1742.198953,0.000138
1742.681156,0.000108
1743.163359,0.000066
1743.645562,0.000053
1744.127765,0.000103
1744.609968,0.000155
1745.092171,0.000146
1745.574373,0.000102
1746.056576,0.000098
1746.538779,0.000054
1747.020982,-0.000103
1747.503185,-0.000136
1747.985388,-0.000056
1748.467591,-0.000160
1748.949794,-0.000223
1749.431996,-0.000093
1749.914199,-0.000043
1750.396402,-0.000051
1750.878605,-0.000225
1751.360808,-0.000501
1751.843011,-0.000263
1752.325214,0.000135
1752.807416,0.000203
1753.289619,0.000203
1753.771822,0.000276
1754.254025,0.000326
1754.736228,0.000361
1755.218431,0.000333
1755.700634,0.000248
1756.182837,0.000184
1756.665039,0.000025
1757.147242,-0.000059
1757.629445,0.000136
1758.111648,0.000275
1758.593851,0.000269
1759.076054,0.000237
1759.558257,0.000220
1760.040459,0.000232
1760.522662,0.000177
1761.004865,0.000086
1761.487068,-0.000073
1761.969271,-0.000217
1762.451474,0.000000
1762.933677,0.000305
1763.415880,0.000407
1763.898082,0.000403
1764.380285,0.000356
1764.862488,0.000298
1765.344691,0.000311
1765.826894,0.000370
1766.309097,0.000340
1766.791300,0.000274
1767.273502,0.000221
1767.755705,-0.000049
1768.237908,-0.000339
1768.720111,-0.000150
1769.202314,0.000141
1769.684517,0.000175
1770.166720,0.000119
1770.648922,-0.000016
1771.131125,-0.000278
1771.613328,-0.000383
1772.095531,-0.000371
1772.577734,-0.000615
1773.059937,-0.000639
1773.542140,-0.000204
1774.024343,-0.000033
1774.506545,-0.000062
1774.988748,0.000015
1775.470951,-0.000000
1775.953154,-0.000053
1776.435357,0.000045
1776.917560,0.000149
1777.399763,0.000199
1777.881965,0.000215
1778.364168,0.000189
1778.846371,0.000154
1779.328574,0.000135
1779.810777,0.000132
1780.292980,0.000093
1780.775183,0.000043
1781.257386,0.000127
1781.739588,0.000293
1782.221791,0.000368
1782.703994,0.000338
1783.186197,0.000282
1783.668400,0.000212
1784.150603,0.000108
1784.632806,-0.000019
1785.115008,-0.000043
1785.597211,0.000115
1786.079414,0.000248
1786.561617,0.000243
1787.043820,0.000219
1787.526023,0.000231
1788.008226,0.000222
1788.490429,0.000184
1788.972631,0.000135
1789.454834,0.000066
1789.937037,0.000002
1790.419240,-0.000115
1790.901443,-0.000308
1791.383646,-0.000316
1791.865849,-0.000178
1792.348051,-0.000325
1792.830254,-0.000496
1793.312457,-0.000186
1793.794660,0.000092
1794.276863,0.000119
1794.759066,0.000184
1795.241269,0.000220
1795.723471,0.000136
1796.205674,0.000086
1796.687877,0.000113
1797.170080,0.000149
1797.652283,0.000136
1798.134486,0.000115
1798.616689,0.000104
1799.098892,-0.000022
1799.581094,-0.000208
1800.063297,-0.000160
1800.545500,0.000032
1801.027703,0.000024
1801.509906,-0.000071
1801.992109,-0.000037
1802.474312,0.000042
1802.956514,0.000155
1803.438717,0.000264
1803.920920,0.000250
1804.403123,0.000170
1804.885326,0.000131
1805.367529,0.000165
1805.849732,0.000214
1806.331935,0.000203
1806.814137,0.000217
1807.296340,0.000266
1807.778543,0.000249
1808.260746,0.000237
1808.742949,0.000229
1809.225152,0.000153
1809.707355,0.000109
1810.189557,0.000098
1810.671760,0.000056
1811.153963,0.000064
1811.636166,0.000086
1812.118369,0.000081
1812.600572,0.000094
1813.082775,0.000121
1813.564978,0.000146
1814.047180,0.000106
1814.529383,0.000059
1815.011586,0.000110
1815.493789,0.000129
1815.975992,0.000122
1816.458195,0.000194
1816.940398,0.000217
1817.422600,0.000131
1817.904803,0.000075
1818.387006,0.000115
1818.869209,0.000164
1819.351412,0.000161
1819.833615,0.000157
1820.315818,0.000187
1820.798021,0.000171
1821.280223,0.000128
1821.762426,0.000160
1822.244629,0.000175
1822.726832,0.000113
1823.209035,0.000054
1823.691238,0.000028
1824.173441,0.000059
1824.655643,0.000007
1825.137846,-0.000216
1825.620049,-0.000249
1826.102252,0.000027
1826.584455,0.000198
1827.066658,0.000127
1827.548861,0.000068
1828.031063,0.000127
1828.513266,0.000061
1828.995469,-0.000161
1829.477672,-0.000293
1829.959875,-0.000375
1830.442078,-0.000373
1830.924281,-0.000129
1831.406484,0.000105
1831.888686,0.000153
1832.370889,0.000086
1832.853092,0.000035
1833.335295,0.000048
1833.817498,0.000112
1834.299701,0.000195
1834.781904,0.000206
1835.264106,0.000240
1835.746309,0.000308
1836.228512,0.000244
1836.710715,0.000124
1837.192918,0.000098
1837.675121,0.000212
1838.157324,0.000305
1838.639527,0.000256
1839.121729,0.000234
1839.603932,0.000248
1840.086135,0.000205
1840.568338,0.000176
1841.050541,0.000195
1841.532744,0.000169
1842.014947,0.000090
1842.497149,0.000093
1842.979352,0.000145
1843.461555,0.000008
1843.943758,-0.000399
1844.425961,-0.000698
1844.908164,-0.000436
1845.390367,-0.000024
1845.872570,0.000124
1846.354772,0.000117
1846.836975,0.000034
1847.319178,-0.000141
1847.801381,-0.000160
1848.283584,-0.000003
1848.765787,0.000144
1849.247990,0.000245
1849.730192,0.000276
1850.212395,0.000298
1850.694598,0.000251
1851.176801,0.000109
1851.659004,0.000048
1852.141207,0.000039
1852.623410,0.000085
1853.105613,0.000216
1853.587815,0.000287
1854.070018,0.000235
1854.552221,0.000111
1855.034424,0.000067
1855.516627,0.000126
1855.998830,0.000187
1856.481033,0.000211
1856.963235,0.000154
1857.445438,0.000108
1857.927641,0.000087
1858.409844,0.000016
1858.892047,0.000019
1859.374250,0.000083
1859.856453,0.000100
1860.338655,0.000137
1860.820858,0.000158
1861.303061,0.000053
1861.785264,-0.000019
1862.267467,0.000067
1862.749670,0.000099
1863.231873,0.000031
1863.714076,0.000036
1864.196278,0.000087
1864.678481,0.000072
1865.160684,-0.000013
1865.642887,-0.000103
1866.125090,-0.000144
1866.607293,-0.000115
1867.089496,-0.000089
1867.571698,-0.000189
1868.053901,-0.000268
1868.536104,-0.000273
1869.018307,-0.000423
1869.500510,-0.000535
1869.982713,-0.000314
1870.464916,-0.000025
1870.947119,0.000051
1871.429321,-0.000002
1871.911524,-0.000006
1872.393727,0.000040
1872.875930,0.000091
1873.358133,0.000127
1873.840336,0.000143
1874.322539,0.000119
1874.804741,0.000087
1875.286944,0.000135
1875.769147,0.000175
1876.251350,0.000122
1876.733553,0.000031
1877.215756,-0.000034
1877.697959,-0.000040
1878.180162,-0.000022
1878.662364,0.000032
1879.144567,0.000040
1879.626770,-0.000030
1880.108973,0.000008
1880.591176,0.000075
1881.073379,0.000084
1881.555582,0.000098
1882.037784,0.000071
1882.519987,0.000054
1883.002190,0.000079
1883.484393,0.000108
1883.966596,0.000127
1884.448799,0.000122
1884.931002,0.000131
1885.413204,0.000089
1885.895407,0.000017
1886.377610,0.000049
1886.859813,0.000130
1887.342016,0.000175
1887.824219,0.000161
1888.306422,0.000058
1888.788625,-0.000057
1889.270827,-0.000112
1889.753030,-0.000132
1890.235233,-0.000070
1890.717436,0.000089
1891.199639,0.000186
1891.681842,0.000141
1892.164045,0.000086
1892.646247,0.000095
1893.128450,0.000108
1893.610653,0.000190
1894.092856,0.000331
1894.575059,0.000201
1895.057262,-0.000058
1895.539465,-0.000008
1896.021668,0.000112
1896.503870,0.000157
1896.986073,0.000316
1897.468276,0.000327
1897.950479,0.000147
1898.432682,0.000143
1898.914885,0.000231
1899.397088,0.000231
1899.879290,0.000289
1900.361493,0.000371
1900.843696,0.000297
1901.325899,0.000199
1901.808102,0.000220
1902.290305,0.000225
1902.772508,0.000237
1903.254711,0.000303
1903.736913,0.000268
1904.219116,0.000183
1904.701319,0.000169
1905.183522,0.000181
1905.665725,0.000236
1906.147928,0.000358
1906.630131,0.000387
1907.112333,0.000242
1907.594536,0.000131
1908.076739,0.000091
1908.558942,0.000070
1909.041145,0.000185
1909.523348,0.000278
1910.005551,0.000227
1910.487754,0.000229
1910.969956,0.000242
1911.452159,0.000214
1911.934362,0.000295
1912.416565,0.000335
1912.898768,0.000204
1913.380971,0.000135
1913.863174,0.000131
1914.345376,0.000095
1914.827579,0.000114
1915.309782,0.000143
1915.791985,0.000151
1916.274188,0.000110
1916.756391,0.000035
1917.238594,0.000056
1917.720796,0.000033
1918.202999,-0.000082
1918.685202,-0.000080
1919.167405,-0.000014
1919.649608,0.000067
1920.131811,0.000143
1920.614014,0.000135
1921.096217,0.000121
1921.578419,0.000116
1922.060622,0.000065
1922.542825,0.000032
1923.025028,0.000063
1923.507231,0.000096
1923.989434,0.000106
1924.471637,0.000108
1924.953839,0.000067
1925.436042,0.000011
1925.918245,0.000027
1926.400448,0.000073
1926.882651,0.000072
1927.364854,0.000074
1927.847057,0.000129
1928.329260,0.000164
1928.811462,0.000176
1929.293665,0.000184
1929.775868,0.000114
1930.258071,0.000036
1930.740274,0.000025
1931.222477,0.000056
1931.704680,0.000134
1932.186882,0.000178
1932.669085,0.000078
1933.151288,-0.000012
1933.633491,0.000081
1934.115694,0.000162
1934.597897,0.000142
1935.080100,0.000175
1935.562303,0.000217
1936.044505,0.000184
1936.526708,0.000142
1937.008911,0.000169
1937.491114,0.000195
1937.973317,0.000165
1938.455520,0.000157
1938.937723,0.000149
1939.419925,0.000147
1939.902128,0.000156
1940.384331,0.000119
1940.866534,0.000073
1941.348737,0.000032
1941.830940,0.000003
1942.313143,-0.000083
1942.795346,-0.000170
1943.277548,-0.000089
1943.759751,-0.000006
1944.241954,0.000033
1944.724157,0.000083
1945.206360,0.000041
1945.688563,-0.000009
1946.170766,-0.000024
1946.652968,-0.000037
1947.135171,-0.000006
1947.617374,0.000026
1948.099577,0.000042
1948.581780,0.000020
1949.063983,-0.000037
1949.546186,-0.000042
1950.028388,0.000019
1950.510591,0.000120
1950.992794,0.000127
1951.474997,0.000054
1951.957200,0.000099
1952.439403,0.000126
1952.921606,0.000082
1953.403809,0.000098
1953.886011,0.000088
1954.368214,0.000052
1954.850417,0.000024
1955.332620,0.000003
1955.814823,0.000051
1956.297026,0.000098
1956.779229,0.000072
1957.261431,0.000005
1957.743634,-0.000016
1958.225837,0.000037
1958.708040,0.000079
1959.190243,0.000103
1959.672446,0.000142
1960.154649,0.000139
1960.636852,0.000092
1961.119054,0.000066
1961.601257,0.000049
1962.083460,0.000027
1962.565663,0.000016
1963.047866,-0.000013
1963.530069,-0.000044
1964.012272,-0.000015
1964.494474,0.000047
1964.976677,0.000042
1965.458880,0.000017
1965.941083,0.000023
1966.423286,-0.000004
1966.905489,-0.000008
1967.387692,-0.000011
1967.869895,-0.000049
1968.352097,0.000011
1968.834300,0.000063
1969.316503,0.000011
1969.798706,0.000011
1970.280909,0.000056
1970.763112,0.000036
1971.245315,0.000002
1971.727517,0.000021
1972.209720,0.000013
1972.691923,-0.000032
1973.174126,-0.000033
1973.656329,-0.000036
1974.138532,0.000010
1974.620735,0.000145
1975.102938,0.000159
1975.585140,0.000050
1976.067343,0.000000
1976.549546,0.000037
1977.031749,0.000076
1977.513952,0.000011
1977.996155,-0.000027
1978.478358,0.000039
1978.960560,0.000031
1979.442763,0.000026
1979.924966,0.000131
1980.407169,0.000171
1980.889372,0.000088
1981.371575,0.000054
1981.853778,0.000088
1982.335980,0.000062
1982.818183,0.000056
1983.300386,0.000112
1983.782589,0.000076
1984.264792,0.000017
1984.746995,0.000052
1985.229198,0.000073
1985.711401,0.000043
1986.193603,0.000014
1986.675806,-0.000014
1987.158009,-0.000012
1987.640212,0.000053
1988.122415,0.000098
1988.604618,0.000069
1989.086821,0.000063
1989.569023,0.000090
1990.051226,0.000042
1990.533429,-0.000052
1991.015632,-0.000118
1991.497835,-0.000135
1991.980038,-0.000082
1992.462241,0.000007
1992.944444,0.000062
1993.426646,0.000067
1993.908849,0.000058
1994.391052,0.000047
1994.873255,0.000063
1995.355458,0.000129
1995.837661,0.000144
1996.319864,0.000079
1996.802066,0.000036
1997.284269,0.000015
1997.766472,0.000003
1998.248675,0.000024
1998.730878,0.000036
1999.213081,0.000008
1999.695284,0.000010
2000.177487,0.000084
2000.659689,0.000120
2001.141892,0.000064
2001.624095,0.000040
2002.106298,0.000034
2002.588501,-0.000034
2003.070704,-0.000046
2003.552907,-0.000013
2004.035109,-0.000029
2004.517312,-0.000052
2004.999515,-0.000043
2005.481718,-0.000006
2005.963921,-0.000036
2006.446124,-0.000080
2006.928327,0.000027
2007.410529,0.000112
2007.892732,0.000073
2008.374935,0.000080
2008.857138,0.000114
2009.339341,0.000098
2009.821544,0.000041
2010.303747,0.000011
2010.785950,0.000044
2011.268152,0.000022
2011.750355,-0.000031
2012.232558,0.000023
2012.714761,0.000070
2013.196964,0.000044
2013.679167,0.000007
2014.161370,-0.000068
2014.643572,-0.000091
2015.125775,-0.000009
2015.607978,0.000051
2016.090181,0.000069
2016.572384,0.000086
2017.054587,0.000075
2017.536790,0.000025
2018.018993,-0.000036
2018.501195,-0.000070
2018.983398,-0.000046
2019.465601,0.000022
2019.947804,0.000032
2020.430007,-0.000031
2020.912210,-0.000043
2021.394413,0.000016
2021.876615,0.000069
2022.358818,0.000079
2022.841021,0.000096
2023.323224,0.000156
2023.805427,0.000149
2024.287630,0.000031
2024.769833,-0.000071
2025.252036,-0.000074
2025.734238,0.000000
2026.216441,0.000059
2026.698644,0.000040
2027.180847,0.000036
2027.663050,0.000102
2028.145253,0.000130
2028.627456,0.000097
2029.109658,0.000074
2029.591861,0.000019
2030.074064,-0.000044
2030.556267,-0.000065
2031.038470,-0.000106
2031.520673,-0.000077
2032.002876,0.000056
2032.485079,0.000089
2032.967281,0.000010
2033.449484,-0.000007
2033.931687,0.000020
2034.413890,-0.000003
2034.896093,-0.000030
2035.378296,0.000009
2035.860499,0.000055
2036.342701,0.000036
2036.824904,0.000007
2037.307107,0.000020
2037.789310,0.000023
2038.271513,0.000001
2038.753716,0.000065
2039.235919,0.000188
2039.718121,0.000210
2040.200324,0.000178
2040.682527,0.000148
2041.164730,0.000084
2041.646933,0.000073
2042.129136,0.000127
2042.611339,0.000103
2043.093542,0.000006
2043.575744,-0.000033
2044.057947,-0.000053
2044.540150,-0.000089
2045.022353,-0.000062
2045.504556,-0.000054
2045.986759,-0.000080
2046.468962,-0.000052
2046.951164,-0.000017
2047.433367,0.000013
2047.915570,0.000056
2048.397773,0.000079
2048.879976,0.000034
2049.362179,-0.000020
2049.844382,0.000012
2050.326585,0.000036
2050.808787,0.000007
2051.290990,-0.000020
2051.773193,-0.000042
2052.255396,-0.000059
2052.737599,-0.000045
2053.219802,0.000020
2053.702005,0.000062
2054.184207,0.000044
2054.666410,0.000034
2055.148613,0.000065
2055.630816,0.000106
2056.113019,0.000149
2056.595222,0.000191
2057.077425,0.000161
2057.559628,0.000106
2058.041830,0.000078
2058.524033,0.000010
2059.006236,-0.000009
2059.488439,0.000017
2059.970642,-0.000010
2060.452845,-0.000025
2060.935048,0.000023
2061.417250,0.000098
2061.899453,0.000097
2062.381656,0.000021
2062.863859,-0.000013
2063.346062,-0.000030
2063.828265,-0.000078
2064.310468,-0.000119
2064.792671,-0.000122
2065.274873,-0.000089
2065.757076,-0.000063
2066.239279,-0.000069
2066.721482,-0.000059
2067.203685,-0.000009
2067.685888,0.000015
2068.168091,0.000031
2068.650293,0.000048
2069.132496,0.000010
2069.614699,0.000008
2070.096902,0.000058
2070.579105,0.000022
2071.061308,-0.000053
2071.543511,-0.000065
2072.025713,-0.000043
2072.507916,-0.000037
2072.990119,-0.000001
2073.472322,0.000054
2073.954525,0.000010
2074.436728,-0.000029
2074.918931,0.000050
2075.401134,0.000086
2075.883336,0.000094
2076.365539,0.000168
2076.847742,0.000182
2077.329945,0.000103
2077.812148,0.000030
2078.294351,0.000025
2078.776554,0.000077
2079.258756,0.000082
2079.740959,0.000034
2080.223162,0.000073
2080.705365,0.000164
2081.187568,0.000137
2081.669771,0.000044
2082.151974,0.000053
2082.634177,0.000098
2083.116379,0.000032
2083.598582,-0.000031
2084.080785,-0.000007
2084.562988,-0.000004
2085.045191,0.000005
2085.527394,0.000039
2086.009597,0.000007
2086.491799,-0.000022
2086.974002,0.000031
2087.456205,0.000091
2087.938408,0.000083
2088.420611,0.000024
2088.902814,-0.000027
2089.385017,-0.000066
2089.867220,-0.000076
2090.349422,-0.000049
2090.831625,-0.000052
2091.313828,-0.000025
2091.796031,0.000034
2092.278234,-0.000007
2092.760437,-0.000030
2093.242640,0.000040
2093.724842,0.000086
2094.207045,0.000079
2094.689248,0.000020
2095.171451,-0.000007
2095.653654,0.000012
2096.135857,-0.000008
2096.618060,-0.000021
2097.100262,0.000002
2097.582465,0.000032
2098.064668,0.000072
2098.546871,0.000091
2099.029074,0.000041
2099.511277,-0.000031
2099.993480,-0.000054
2100.475683,-0.000053
2100.957885,-0.000037
2101.440088,-0.000007
2101.922291,0.000008
2102.404494,0.000036
2102.886697,0.000072
2103.368900,0.000063
2103.851103,-0.000009
2104.333305,-0.000101
2104.815508,-0.000134
2105.297711,-0.000080
2105.779914,0.000013
2106.262117,0.000048
2106.744320,0.000076
2107.226523,0.000134
2107.708726,0.000087
2108.190928,0.000043
2108.673131,0.000099
2109.155334,0.000119
2109.637537,0.000119
2110.119740,0.000091
2110.601943,0.000033
2111.084146,0.000001
2111.566348,-0.000037
2112.048551,0.000013
2112.530754,0.000080
2113.012957,0.000022
2113.495160,0.000001
2113.977363,0.000065
2114.459566,0.000089
2114.941769,0.000087
2115.423971,0.000113
2115.906174,0.000100
2116.388377,0.000036
2116.870580,-0.000030
2117.352783,-0.000067
2117.834986,0.000002
2118.317189,0.000055
2118.799391,0.000007
2119.281594,0.000007
2119.763797,-0.000011
2120.246000,-0.000083
2120.728203,-0.000065
2121.210406,-0.000020
2121.692609,-0.000006
2122.174812,0.000040
2122.657014,0.000042
2123.139217,-0.000066
2123.621420,-0.000101
2124.103623,0.000020
2124.585826,0.000131
2125.068029,0.000100
2125.550232,-0.000001
2126.032434,0.000030
2126.514637,0.000123
2126.996840,0.000073
2127.479043,-0.000020
2127.961246,-0.000068
2128.443449,-0.000073
2128.925652,-0.000016
2129.407854,0.000008
2129.890057,-0.000007
2130.372260,0.000002
2130.854463,0.000016
2131.336666,0.000031
2131.818869,0.000035
2132.301072,0.000030
2132.783275,0.000007
2133.265477,-0.000018
2133.747680,0.000006
2134.229883,0.000006
2134.712086,-0.000058
2135.194289,-0.000098
2135.676492,-0.000133
2136.158695,-0.000193
2136.640897,-0.000132
2137.123100,0.000062
2137.605303,0.000150
2138.087506,0.000102
2138.569709,0.000025
2139.051912,-0.000020
2139.534115,0.000021
2140.016318,0.000044
2140.498520,-0.000011
2140.980723,0.000001
2141.462926,0.000092
2141.945129,0.000074
2142.427332,-0.000037
2142.909535,-0.000017
2143.391738,0.000043
2143.873940,-0.000004
2144.356143,-0.000018
2144.838346,-0.000014
2145.320549,-0.000075
2145.802752,-0.000097
2146.284955,-0.000091
2146.767158,-0.000084
2147.249361,-0.000010
2147.731563,0.000091
2148.213766,0.000103
2148.695969,0.000033
2149.178172,-0.000008
2149.660375,-0.000004
2150.142578,0.000052
2150.624781,0.000127
2151.106983,0.000086
2151.589186,0.000016
2152.071389,0.000037
2152.553592,0.000024
2153.035795,0.000011
2153.517998,0.000084
2154.000201,0.000107
2154.482404,0.000057
2154.964606,0.000045
2155.446809,0.000040
2155.929012,0.000019
2156.411215,0.000001
2156.893418,-0.000058
2157.375621,-0.000081
2157.857824,-0.000002
2158.340026,0.000092
2158.822229,0.000112
2159.304432,0.000042
2159.786635,-0.000035
2160.268838,-0.000047
2160.751041,0.000010
2161.233244,0.000035
2161.715446,-0.000004
2162.197649,0.000013
2162.679852,0.000047
2163.162055,0.000063
2163.644258,0.000046
2164.126461,-0.000038
2164.608664,-0.000068
2165.090867,-0.000071
2165.573069,-0.000141
2166.055272,-0.000146
2166.537475,-0.000035
2167.019678,0.000007
2167.501881,-0.000074
2167.984084,-0.000099
2168.466287,-0.000090
2168.948489,-0.000095
2169.430692,-0.000041
2169.912895,-0.000069
2170.395098,-0.000169
2170.877301,-0.000111
2171.359504,0.000007
2171.841707,0.000009
2172.323910,-0.000027
2172.806112,-0.000064
2173.288315,-0.000103
2173.770518,-0.000132
2174.252721,-0.000191
2174.734924,-0.000165
2175.217127,-0.000035
2175.699330,0.000012
2176.181532,0.000022
2176.663735,0.000047
2177.145938,-0.000038
2177.628141,-0.000073
2178.110344,0.000003
2178.592547,-0.000007
2179.074750,-0.000025
2179.556953,-0.000006
2180.039155,-0.000037
2180.521358,-0.000065
2181.003561,-0.000052
2181.485764,-0.000032
2181.967967,-0.000064
2182.450170,-0.000088
2182.932373,-0.000076
2183.414575,-0.000086
2183.896778,-0.000042
2184.378981,-0.000010
2184.861184,-0.000032
2185.343387,-0.000016
2185.825590,-0.000075
2186.307793,-0.000163
2186.789995,-0.000154
2187.272198,-0.000121
2187.754401,-0.000051
2188.236604,-0.000033
2188.718807,-0.000094
2189.201010,-0.000064
2189.683213,-0.000010
2190.165416,0.000009
2190.647618,0.000026
2191.129821,-0.000023
2191.612024,-0.000101
2192.094227,-0.000140
2192.576430,-0.000092
2193.058633,-0.000025
2193.540836,-0.000026
2194.023038,0.000021
2194.505241,0.000042
2194.987444,-0.000023
2195.469647,-0.000003
2195.951850,0.000076
2196.434053,0.000097
2196.916256,0.000025
2197.398459,-0.000032
2197.880661,-0.000005
2198.362864,-0.000111
2198.845067,-0.000265
2199.327270,-0.000228
2199.809473,-0.000176
2200.291676,-0.000137
2200.773879,-0.000050
2201.256081,-0.000030
2201.738284,-0.000018
2202.220487,0.000033
2202.702690,0.000050
2203.184893,0.000006
2203.667096,-0.000054
2204.149299,-0.000051
2204.631502,-0.000038
2205.113704,-0.000125
2205.595907,-0.000162
2206.078110,-0.000012
2206.560313,0.000097
2207.042516,0.000049
2207.524719,-0.000029
2208.006922,-0.000078
2208.489124,-0.000046
2208.971327,-0.000046
2209.453530,-0.000141
2209.935733,-0.000116
2210.417936,-0.000004
2210.900139,0.000021
2211.382342,0.000023
2211.864545,0.000051
2212.346747,0.000037
2212.828950,-0.000004
2213.311153,-0.000011
2213.793356,-0.000010
2214.275559,-0.000020
2214.757762,-0.000037
2215.239965,-0.000094
2215.722167,-0.000100
2216.204370,0.000011
2216.686573,0.000082
2217.168776,0.000044
2217.650979,0.000004
2218.133182,-0.000001
2218.615385,-0.000032
2219.097587,-0.000126
2219.579790,-0.000209
2220.061993,-0.000212
2220.544196,-0.000150
2221.026399,-0.000079
2221.508602,-0.000052
2221.990805,-0.000062
2222.473008,-0.000094
2222.955210,-0.000103
2223.437413,-0.000094
2223.919616,-0.000105
2224.401819,-0.000091
2224.884022,-0.000079
2225.366225,-0.000064
2225.848428,-0.000025
2226.330630,-0.000047
2226.812833,-0.000080
2227.295036,-0.000085
2227.777239,-0.000076
2228.259442,-0.000015
2228.741645,0.000050
2229.223848,0.000055
2229.706051,0.000007
2230.188253,-0.000015
2230.670456,-0.000021
2231.152659,-0.000083
2231.634862,-0.000103
2232.117065,-0.000096
2232.599268,-0.000116
2233.081471,-0.000063
2233.563673,-0.000032
2234.045876,-0.000075
2234.528079,-0.000014
2235.010282,0.000046
2235.492485,-0.000030
2235.974688,-0.000081
2236.456891,-0.000061
2236.939094,-0.000027
2237.421296,-0.000010
2237.903499,-0.000047
2238.385702,-0.000094
2238.867905,-0.000113
2239.350108,-0.000069
2239.832311,-0.000030
2240.314514,-0.000054
2240.796716,-0.000023
2241.278919,0.000015
2241.761122,-0.000023
2242.243325,-0.000055
2242.725528,-0.000054
2243.207731,-0.000065
2243.689934,-0.000097
2244.172137,-0.000060
2244.654339,0.000005
2245.136542,-0.000018
2245.618745,-0.000054
2246.100948,-0.000082
2246.583151,-0.000103
2247.065354,-0.000107
2247.547557,-0.000122
2248.029759,-0.000106
2248.511962,-0.000059
2248.994165,-0.000010
2249.476368,0.000015
2249.958571,-0.000041
2250.440774,-0.000108
2250.922977,-0.000121
2251.405179,-0.000151
2251.887382,-0.000197
2252.369585,-0.000197
2252.851788,-0.000149
2253.333991,-0.000107
2253.816194,-0.000126
2254.298397,-0.000165
2254.780600,-0.000166
2255.262802,-0.000182
2255.745005,-0.000204
2256.227208,-0.000155
2256.709411,-0.000083
2257.191614,-0.000018
2257.673817,0.000007
2258.156020,-0.000069
2258.638222,-0.000134
2259.120425,-0.000153
2259.602628,-0.000156
2260.084831,-0.000091
2260.567034,-0.000079
2261.049237,-0.000156
2261.531440,-0.000199
2262.013643,-0.000233
2262.495845,-0.000280
2262.978048,-0.000295
2263.460251,-0.000225
2263.942454,-0.000151
2264.424657,-0.000179
2264.906860,-0.000177
2265.389063,-0.000109
2265.871265,-0.000092
2266.353468,-0.000111
2266.835671,-0.000113
2267.317874,-0.000139
2267.800077,-0.000182
2268.282280,-0.000164
2268.764483,-0.000158
2269.246686,-0.000193
2269.728888,-0.000142
2270.211091,-0.000068
2270.693294,-0.000126
2271.175497,-0.000215
2271.657700,-0.000192
2272.139903,-0.000130
2272.622106,-0.000111
2273.104308,-0.000120
2273.586511,-0.000116
2274.068714,-0.000159
2274.550917,-0.000230
2275.033120,-0.000174
2275.515323,-0.000173
2275.997526,-0.000259
2276.479729,-0.000219
2276.961931,-0.000181
2277.444134,-0.000144
2277.926337,-0.000074
2278.408540,-0.000086
2278.890743,-0.000130
2279.372946,-0.000195
2279.855149,-0.000249
2280.337351,-0.000226
2280.819554,-0.000196
2281.301757,-0.000221
2281.783960,-0.000188
2282.266163,-0.000070
2282.748366,-0.000026
2283.230569,-0.000050
2283.712771,-0.000108
2284.194974,-0.000139
2284.677177,-0.000087
2285.159380,-0.000088
2285.641583,-0.000160
2286.123786,-0.000197
2286.605989,-0.000169
2287.088192,-0.000203
2287.570394,-0.000285
2288.052597,-0.000222
2288.534800,-0.000147
2289.017003,-0.000196
2289.499206,-0.000274
2289.981409,-0.000332
2290.463612,-0.000286
2290.945814,-0.000196
2291.428017,-0.000184
2291.910220,-0.000170
2292.392423,-0.000139
2292.874626,-0.000156
2293.356829,-0.000184
2293.839032,-0.000166
2294.321235,-0.000110
2294.803437,-0.000107
2295.285640,-0.000168
2295.767843,-0.000221
2296.250046,-0.000197
2296.732249,-0.000114
2297.214452,-0.000040
2297.696655,-0.000021
2298.178857,-0.000048
2298.661060,-0.000087
2299.143263,-0.000105
2299.625466,-0.000140
2300.107669,-0.000159
2300.589872,-0.000117
2301.072075,-0.000097
2301.554278,-0.000083
2302.036480,-0.000049
2302.518683,-0.000054
2303.000886,0.000003
2303.483089,0.000158
2303.965292,0.000233
2304.447495,0.000181
2304.929698,0.000100
2305.411900,0.000056
2305.894103,0.000092
2306.376306,0.000126
2306.858509,0.000048
2307.340712,0.000029
2307.822915,0.000171
2308.305118,0.000238
2308.787320,0.000127
2309.269523,0.000011
2309.751726,0.000092
2310.233929,0.000264
2310.716132,0.000191
2311.198335,-0.000021
2311.680538,0.000025
2312.162741,0.000173
2312.644943,0.000078
2313.127146,-0.000074
2313.609349,0.000065
2314.091552,0.000278
2314.573755,0.000207
2315.055958,0.000023
2315.538161,0.000042
2316.020363,0.000272
2316.502566,0.000452
2316.984769,0.000268
2317.466972,-0.000002
2317.949175,0.000217
2318.431378,0.000462
2318.913581,0.000203
2319.395784,-0.000153
2319.877986,-0.000032
2320.360189,0.000265
2320.842392,0.000105
2321.324595,-0.000229
2321.806798,0.000022
2322.289001,0.000326
2322.771204,0.000033
2323.253406,-0.000339
2323.735609,-0.000069
2324.217812,0.000352
2324.700015,0.000188
2325.182218,-0.000270
2325.664421,-0.000051
2326.146624,0.000457
2326.628827,0.000296
2327.111029,-0.000131
2327.593232,0.000111
2328.075435,0.000412
2328.557638,0.000071
2329.039841,-0.000295
2329.522044,0.000009
2330.004247,0.000204
2330.486449,-0.000173
2330.968652,-0.000306
2331.450855,0.000205
2331.933058,0.000302
2332.415261,-0.000276
2332.897464,-0.000349
2333.379667,0.000231
2333.861870,0.000258
2334.344072,-0.000171
2334.826275,0.000054
2335.308478,0.000430
2335.790681,0.000115
2336.272884,-0.000191
2336.755087,0.000210
2337.237290,0.000346
2337.719492,-0.000123
2338.201695,-0.000142
2338.683898,0.000360
2339.166101,0.000267
2339.648304,-0.000085
2340.130507,0.000260
2340.612710,0.000432
2341.094912,0.000022
2341.577115,0.000083
2342.059318,0.000491
2342.541521,0.000297
2343.023724,0.000123
2343.505927,0.000569
2343.988130,0.000629
2344.470333,0.000259
2344.952535,0.000474
2345.434738,0.000860
2345.916941,0.000695
2346.399144,0.000722
2346.881347,0.001262
2347.363550,0.001431
2347.845753,0.001287
2348.327955,0.001469
2348.810158,0.001733
2349.292361,0.001682
2349.774564,0.001420
2350.256767,0.001296
2350.738970,0.001369
2351.221173,0.001168
2351.703376,0.000829
2352.185578,0.000954
2352.667781,0.000909
2353.149984,0.000464
2353.632187,0.000562
2354.114390,0.000644
2354.596593,0.000224
2355.078796,0.000370
2355.560998,0.000577
2356.043201,0.000158
2356.525404,0.000240
2357.007607,0.000468
2357.489810,0.000052
2357.972013,0.000124
2358.454216,0.000406
2358.936419,0.000176
2359.418621,0.000365
2359.900824,0.000476
2360.383027,0.000063
2360.865230,0.000153
2361.347433,0.000101
2361.829636,-0.000127
2362.311839,0.000070
2362.794041,-0.000170
2363.276244,-0.000402
2363.758447,-0.000183
2364.240650,-0.000236
2364.722853,-0.000128
2365.205056,-0.000187
2365.687259,-0.000487
2366.169462,-0.000315
2366.651664,-0.000388
2367.133867,-0.000471
2367.616070,-0.000351
2368.098273,-0.000560
2368.580476,-0.000579
2369.062679,-0.000499
2369.544882,-0.000415
2370.027084,-0.000319
2370.509287,-0.000423
2370.991490,-0.000384
2371.473693,-0.000392
2371.955896,-0.000428
2372.438099,-0.000297
2372.920302,-0.000266
2373.402504,-0.000311
2373.884707,-0.000352
2374.366910,-0.000325
2374.849113,-0.000302
2375.331316,-0.000335
2375.813519,-0.000357
2376.295722,-0.000351
2376.777925,-0.000288
2377.260127,-0.000360
2377.742330,-0.000425
2378.224533,-0.000336
2378.706736,-0.000364
2379.188939,-0.000414
2379.671142,-0.000412
2380.153345,-0.000435
2380.635547,-0.000386
2381.117750,-0.000288
2381.599953,-0.000290
2382.082156,-0.000261
2382.564359,-0.000232
2383.046562,-0.000256
2383.528765,-0.000197
2384.010968,-0.000099
2384.493170,-0.000073
2384.975373,-0.000077
2385.457576,-0.000117
2385.939779,-0.000159
2386.421982,-0.000146
2386.904185,-0.000108
2387.386388,-0.000079
2387.868590,-0.000036
2388.350793,0.000019
2388.832996,0.000025
2389.315199,0.000004
2389.797402,0.000031
2390.279605,0.000090
2390.761808,0.000051
2391.244011,-0.000089
2391.726213,-0.000153
2392.208416,-0.000137
2392.690619,-0.000062
2393.172822,0.000047
2393.655025,-0.000016
2394.137228,-0.000123
2394.619431,-0.000020
2395.101633,0.000047
2395.583836,-0.000050
2396.066039,-0.000055
2396.548242,0.000002
2397.030445,0.000006
2397.512648,0.000045
2397.994851,0.000061
2398.477053,0.000003
2398.959256,-0.000049
2399.441459,-0.000097
2399.923662,-0.000126
2400.405865,-0.000106
2400.888068,-0.000085
2401.370271,-0.000118
2401.852474,-0.000149
2402.334676,-0.000090
2402.816879,0.000022
2403.299082,0.000084
2403.781285,0.000041
2404.263488,-0.000008
2404.745691,0.000005
2405.227894,-0.000010
2405.710096,-0.000086
2406.192299,-0.000178
2406.674502,-0.000162
2407.156705,-0.000024
2407.638908,0.000067
2408.121111,0.000067
2408.603314,0.000003
2409.085517,-0.000059
2409.567719,-0.000042
2410.049922,-0.000005
2410.532125,0.000012
2411.014328,0.000006
2411.496531,-0.000010
2411.978734,-0.000023
2412.460937,-0.000046
2412.943139,0.000005
2413.425342,0.000084
2413.907545,0.000070
2414.389748,-0.000007
2414.871951,-0.000092
2415.354154,-0.000103
2415.836357,-0.000068
2416.318560,-0.000053
2416.800762,-0.000010
2417.282965,-0.000014
2417.765168,-0.000041
2418.247371,0.000013
2418.729574,0.000053
2419.211777,0.000050
2419.693980,0.000052
2420.176182,0.000079
2420.658385,0.000154
2421.140588,0.000175
2421.622791,0.000101
2422.104994,0.000053
2422.587197,0.000019
2423.069400,0.000004
2423.551603,0.000081
2424.033805,0.000102
2424.516008,-0.000002
2424.998211,-0.000078
2425.480414,-0.000077
2425.962617,-0.000063
2426.444820,-0.000059
2426.927023,0.000012
2427.409225,0.000070
2427.891428,-0.000002
2428.373631,-0.000049
2428.855834,-0.000009
2429.338037,0.000005
2429.820240,0.000001
2430.302443,0.000028
2430.784645,0.000057
2431.266848,0.000054
2431.749051,-0.000021
2432.231254,-0.000081
2432.713457,-0.000028
2433.195660,-0.000050
2433.677863,-0.000119
2434.160066,-0.000085
2434.642268,-0.000080
2435.124471,-0.000070
2435.606674,-0.000064
2436.088877,-0.000107
2436.571080,-0.000042
2437.053283,0.000034
2437.535486,0.000043
2438.017688,0.000097
2438.499891,0.000134
2438.982094,0.000102
2439.464297,0.000078
2439.946500,0.000059
2440.428703,0.000000
2440.910906,-0.000032
2441.393109,0.000007
2441.875311,0.000010
2442.357514,-0.000043
2442.839717,-0.000021
2443.321920,0.000031
2443.804123,-0.000000
2444.286326,-0.000028
2444.768529,-0.000028
2445.250731,-0.000050
2445.732934,-0.000025
2446.215137,0.000028
2446.697340,0.000025
2447.179543,0.000000
2447.661746,0.000034
2448.143949,0.000061
2448.626152,-0.000019
2449.108354,-0.000105
2449.590557,-0.000090
2450.072760,-0.000023
2450.554963,0.000022
2451.037166,0.000045
2451.519369,0.000040
2452.001572,-0.000025
2452.483774,-0.000052
2452.965977,-0.000013
2453.448180,-0.000013
2453.930383,0.000003
2454.412586,0.000037
2454.894789,-0.000054
2455.376992,-0.000173
2455.859195,-0.000109
2456.341397,0.000011
2456.823600,0.000045
2457.305803,0.000097
2457.788006,0.000097
2458.270209,0.000039
2458.752412,0.000063
2459.234615,0.000069
2459.716817,0.000084
2460.199020,0.000138
2460.681223,0.000066
2461.163426,-0.000032
2461.645629,-0.000073
2462.127832,-0.000154
2462.610035,-0.000164
2463.092237,-0.000068
2463.574440,-0.000031
2464.056643,-0.000057
2464.538846,-0.000045
2465.021049,-0.000005
2465.503252,0.000002
2465.985455,0.000004
2466.467658,0.000036
2466.949860,0.000021
2467.432063,-0.000048
2467.914266,-0.000076
2468.396469,-0.000058
2468.878672,-0.000053
2469.360875,-0.000087
2469.843078,-0.000091
2470.325280,-0.000066
2470.807483,-0.000071
2471.289686,-0.000043
2471.771889,-0.000043
2472.254092,-0.000100
2472.736295,-0.000046
2473.218498,0.000013
2473.700701,-0.000047
2474.182903,-0.000035
2474.665106,0.000039
2475.147309,0.000007
2475.629512,-0.000033
2476.111715,-0.000050
2476.593918,-0.000121
2477.076121,-0.000110
2477.558323,-0.000046
2478.040526,-0.000030
2478.522729,0.000029
2479.004932,0.000041
2479.487135,0.000020
2479.969338,0.000096
2480.451541,0.000107
2480.933744,0.000033
2481.415946,0.000052
2481.898149,0.000142
2482.380352,0.000118
2482.862555,-0.000033
2483.344758,-0.000108
2483.826961,-0.000079
2484.309164,-0.000076
2484.791366,-0.000069
2485.273569,0.000019
2485.755772,0.000075
2486.237975,0.000045
2486.720178,0.000015
2487.202381,-0.000034
2487.684584,-0.000050
2488.166786,-0.000044
2488.648989,-0.000124
2489.131192,-0.000142
2489.613395,-0.000033
2490.095598,0.000065
2490.577801,0.000101
2491.060004,0.000127
2491.542207,0.000114
2492.024409,0.000012
2492.506612,-0.000061
2492.988815,-0.000093
2493.471018,-0.000138
2493.953221,-0.000131
2494.435424,-0.000088
2494.917627,-0.000052
2495.399829,-0.000059
2495.882032,-0.000063
2496.364235,-0.000000
2496.846438,0.000048
2497.328641,0.000053
2497.810844,0.000043
2498.293047,0.000015
2498.775250,0.000024
2499.257452,0.000058
2499.739655,0.000038
2500.221858,-0.000006
2500.704061,-0.000027
2501.186264,-0.000031
2501.668467,-0.000020
2502.150670,-0.000032
2502.632872,-0.000048
2503.115075,-0.000038
2503.597278,-0.000060
2504.079481,-0.000080
2504.561684,-0.000058
2505.043887,-0.000151
2505.526090,-0.000276
2506.008293,-0.000208
2506.490495,-0.000127
2506.972698,-0.000146
2507.454901,-0.000097
2507.937104,0.000017
2508.419307,0.000044
2508.901510,-0.000013
2509.383713,-0.000018
2509.865915,-0.000030
2510.348118,-0.000056
2510.830321,-0.000017
2511.312524,-0.000040
2511.794727,-0.000059
2512.276930,0.000006
2512.759133,0.000049
2513.241336,0.000019
2513.723538,-0.000081
2514.205741,-0.000088
2514.687944,-0.000048
2515.170147,-0.000103
2515.652350,-0.000113
2516.134553,-0.000099
2516.616756,-0.000100
2517.098958,-0.000021
2517.581161,-0.000005
2518.063364,-0.000057
2518.545567,0.000004
2519.027770,0.000027
2519.509973,-0.000062
2519.992176,-0.000083
2520.474378,-0.000070
2520.956581,-0.000062
2521.438784,-0.000051
2521.920987,-0.000074
2522.403190,-0.000069
2522.885393,-0.000083
2523.367596,-0.000114
2523.849799,-0.000087
2524.332001,-0.000101
2524.814204,-0.000145
2525.296407,-0.000143
2525.778610,-0.000078
2526.260813,0.000086
2526.743016,0.000178
2527.225219,0.000080
2527.707421,0.000017
2528.189624,0.000056
2528.671827,0.000051
2529.154030,0.000029
2529.636233,0.000018
2530.118436,-0.000025
2530.600639,-0.000075
2531.082842,-0.000107
2531.565044,-0.000106
2532.047247,-0.000086
2532.529450,-0.000061
2533.011653,-0.000029
2533.493856,-0.000038
2533.976059,-0.000119
2534.458262,-0.000194
2534.940464,-0.000158
2535.422667,-0.000075
2535.904870,-0.000013
2536.387073,0.000093
2536.869276,0.000115
2537.351479,0.000006
2537.833682,-0.000023
2538.315885,0.000004
2538.798087,-0.000002
2539.280290,-0.000018
2539.762493,-0.000061
2540.244696,-0.000002
2540.726899,0.000130
2541.209102,0.000076
2541.691305,-0.000035
2542.173507,-0.000006
2542.655710,0.000045
2543.137913,0.000070
2543.620116,0.000043
2544.102319,-0.000012
2544.584522,0.000016
2545.066725,0.000009
2545.548928,-0.000023
2546.031130,0.000016
2546.513333,-0.000000
2546.995536,0.000020
2547.477739,0.000106
2547.959942,0.000069
2548.442145,-0.000025
2548.924348,-0.000068
2549.406550,-0.000110
2549.888753,-0.000161
2550.370956,-0.000149
2550.853159,-0.000080
2551.335362,-0.000111
2551.817565,-0.000218
2552.299768,-0.000210
2552.781970,-0.000112
2553.264173,-0.000031
2553.746376,-0.000009
2554.228579,-0.000048
2554.710782,-0.000064
2555.192985,-0.000061
2555.675188,-0.000070
2556.157391,-0.000046
2556.639593,-0.000045
2557.121796,-0.000069
2557.603999,-0.000063
2558.086202,-0.000048
2558.568405,-0.000033
2559.050608,-0.000027
2559.532811,-0.000012
2560.015013,-0.000007
2560.497216,-0.000040
2560.979419,-0.000033
2561.461622,0.000001
2561.943825,-0.000039
2562.426028,-0.000077
2562.908231,-0.000051
2563.390434,-0.000021
2563.872636,0.000007
2564.354839,0.000002
2564.837042,-0.000009
2565.319245,-0.000032
2565.801448,-0.000103
2566.283651,-0.000050
2566.765854,0.000073
2567.248056,0.000063
2567.730259,-0.000026
2568.212462,-0.000082
2568.694665,-0.000097
2569.176868,-0.000093
2569.659071,-0.000053
2570.141274,-0.000060
2570.623477,-0.000049
2571.105679,0.000028
2571.587882,-0.000035
2572.070085,-0.000060
2572.552288,0.000020
2573.034491,-0.000010
2573.516694,-0.000030
2573.998897,-0.000033
2574.481099,-0.000071
2574.963302,-0.000036
2575.445505,0.000014
2575.927708,-0.000015
2576.409911,-0.000060
2576.892114,-0.000029
2577.374317,-0.000023
2577.856520,-0.000080
2578.338722,-0.000079
2578.820925,-0.000081
2579.303128,-0.000065
2579.785331,0.000007
2580.267534,-0.000042
2580.749737,-0.000111
2581.231940,-0.000042
2581.714142,0.000009
2582.196345,0.000038
2582.678548,0.000089
2583.160751,0.000051
2583.642954,-0.000051
2584.125157,-0.000065
2584.607360,-0.000030
2585.089562,-0.000058
2585.571765,-0.000070
2586.053968,-0.000049
2586.536171,-0.000032
2587.018374,-0.000027
2587.500577,-0.000078
2587.982780,-0.000077
2588.464983,-0.000021
2588.947185,-0.000052
2589.429388,-0.000111
2589.911591,-0.000108
2590.393794,-0.000056
2590.875997,0.000007
2591.358200,0.000023
2591.840403,-0.000028
2592.322605,-0.000080
2592.804808,-0.000089
2593.287011,-0.000054
2593.769214,0.000009
2594.251417,0.000007
2594.733620,-0.000022
2595.215823,0.000015
2595.698026,-0.000001
2596.180228,-0.000086
2596.662431,-0.000110
2597.144634,-0.000104
2597.626837,-0.000123
2598.109040,-0.000141
2598.591243,-0.000153
2599.073446,-0.000138
2599.555648,-0.000047
2600.037851,0.000055
2600.520054,0.000062
2601.002257,0.000005
2601.484460,-0.000006
2601.966663,0.000028
2602.448866,0.000027
2602.931069,-0.000050
2603.413271,-0.000159
2603.895474,-0.000170
2604.377677,-0.000082
2604.859880,0.000028
2605.342083,0.000107
2605.824286,0.000045
2606.306489,-0.000012
2606.788691,0.000026
2607.270894,-0.000026
2607.753097,-0.000087
2608.235300,-0.000088
2608.717503,-0.000087
2609.199706,-0.000057
2609.681909,-0.000047
2610.164111,-0.000098
2610.646314,-0.000174
2611.128517,-0.000167
2611.610720,-0.000095
2612.092923,-0.000073
2612.575126,-0.000057
2613.057329,-0.000092
2613.539532,-0.000113
2614.021734,-0.000044
2614.503937,-0.000056
2614.986140,-0.000035
2615.468343,0.000048
2615.950546,0.000020
2616.432749,0.000014
2616.914952,-0.000022
2617.397154,-0.000092
2617.879357,-0.000004
2618.361560,0.000031
2618.843763,-0.000084
2619.325966,-0.000159
2619.808169,-0.000181
2620.290372,-0.000139
2620.772575,-0.000046
2621.254777,-0.000029
2621.736980,-0.000101
2622.219183,-0.000167
2622.701386,-0.000183
2623.183589,-0.000164
2623.665792,-0.000113
2624.147995,-0.000061
2624.630197,-0.000008
2625.112400,0.000018
2625.594603,-0.000066
2626.076806,-0.000132
2626.559009,-0.000091
2627.041212,-0.000108
2627.523415,-0.000090
2628.005618,0.000051
2628.487820,0.000125
2628.970023,0.000128
2629.452226,0.000085
2629.934429,-0.000025
2630.416632,-0.000082
2630.898835,-0.000035
2631.381038,0.000053
2631.863240,0.000069
2632.345443,-0.000002
2632.827646,-0.000054
2633.309849,-0.000066
2633.792052,-0.000073
2634.274255,-0.000029
2634.756458,0.000028
2635.238661,-0.000024
2635.720863,-0.000086
2636.203066,-0.000088
2636.685269,-0.000073
2637.167472,-0.000019
2637.649675,-0.000032
2638.131878,-0.000094
2638.614081,-0.000114
2639.096283,-0.000132
2639.578486,-0.000109
2640.060689,-0.000099
2640.542892,-0.000117
2641.025095,-0.000088
2641.507298,-0.000035
2641.989501,-0.000007
2642.471703,-0.000039
2642.953906,-0.000051
2643.436109,-0.000040
2643.918312,-0.000100
2644.400515,-0.000151
2644.882718,-0.000092
2645.364921,-0.000040
2645.847124,-0.000121
2646.329326,-0.000161
2646.811529,-0.000056
2647.293732,0.000033
2647.775935,0.000038
2648.258138,0.000031
2648.740341,0.000047
2649.222544,0.000017
2649.704746,-0.000054
2650.186949,-0.000100
2650.669152,-0.000144
2651.151355,-0.000146
2651.633558,-0.000087
2652.115761,-0.000040
2652.597964,-0.000049
2653.080167,-0.000055
2653.562369,-0.000013
2654.044572,-0.000010
2654.526775,-0.000059
2655.008978,-0.000056
2655.491181,-0.000021
2655.973384,-0.000058
2656.455587,-0.000133
2656.937789,-0.000154
2657.419992,-0.000095
2657.902195,0.000026
2658.384398,0.000022
2658.866601,-0.000115
2659.348804,-0.000144
2659.831007,-0.000141
2660.313210,-0.000148
2660.795412,-0.000029
2661.277615,0.000070
2661.759818,0.000046
2662.242021,-0.000034
2662.724224,-0.000108
2663.206427,-0.000082
2663.688630,-0.000085
2664.170832,-0.000203
2664.653035,-0.000226
2665.135238,-0.000155
2665.617441,-0.000120
2666.099644,-0.000093
2666.581847,-0.000076
2667.064050,-0.000057
2667.546253,-0.000037
2668.028455,-0.000075
2668.510658,-0.000141
2668.992861,-0.000106
2669.475064,0.000012
2669.957267,-0.000002
2670.439470,-0.000085
2670.921673,-0.000091
2671.403875,-0.000103
2671.886078,-0.000074
2672.368281,-0.000052
2672.850484,-0.000137
2673.332687,-0.000164
2673.814890,-0.000087
2674.297093,-0.000009
2674.779295,-0.000003
2675.261498,-0.000026
2675.743701,-0.000052
2676.225904,-0.000128
2676.708107,-0.000161
2677.190310,-0.000145
2677.672513,-0.000082
2678.154716,0.000007
2678.636918,0.000010
2679.119121,0.000004
2679.601324,0.000019
2680.083527,0.000015
2680.565730,-0.000041
2681.047933,-0.000101
2681.530136,-0.000066
2682.012338,-0.000066
2682.494541,-0.000080
2682.976744,-0.000047
2683.458947,-0.000014
2683.941150,0.000060
2684.423353,0.000027
2684.905556,-0.000107
2685.387759,-0.000194
2685.869961,-0.000238
2686.352164,-0.000154
2686.834367,-0.000056
2687.316570,-0.000130
2687.798773,-0.000222
2688.280976,-0.000198
2688.763179,-0.000102
2689.245381,-0.000046
2689.727584,-0.000090
2690.209787,-0.000125
2690.691990,-0.000090
2691.174193,-0.000043
2691.656396,-0.000003
2692.138599,0.000022
2692.620802,-0.000018
2693.103004,-0.000031
2693.585207,0.000044
2694.067410,0.000008
2694.549613,-0.000047
2695.031816,0.000030
2695.514019,0.000026
2695.996222,-0.000041
2696.478424,-0.000103
2696.960627,-0.000140
2697.442830,-0.000072
2697.925033,-0.000060
2698.407236,-0.000117
2698.889439,-0.000111
2699.371642,-0.000088
2699.853844,-0.000109
2700.336047,-0.000129
2700.818250,-0.000135
2701.300453,-0.000126
2701.782656,-0.000031
2702.264859,0.000053
2702.747062,0.000076
2703.229265,0.000113
2703.711467,0.000091
2704.193670,-0.000002
2704.675873,-0.000086
2705.158076,-0.000109
2705.640279,-0.000132
2706.122482,-0.000209
2706.604685,-0.000206
2707.086887,-0.000115
2707.569090,-0.000068
2708.051293,-0.000062
2708.533496,-0.000038
2709.015699,-0.000050
2709.497902,-0.000041
2709.980105,0.000050
2710.462308,0.000023
2710.944510,-0.000045
2711.426713,0.000006
2711.908916,-0.000017
2712.391119,-0.000124
2712.873322,-0.000146
2713.355525,-0.000129
2713.837728,-0.000158
2714.319930,-0.000155
2714.802133,-0.000104
2715.284336,-0.000093
2715.766539,-0.000114
2716.248742,-0.000152
2716.730945,-0.000127
2717.213148,-0.000002
2717.695351,-0.000004
2718.177553,-0.000129
2718.659756,-0.000122
2719.141959,-0.000104
2719.624162,-0.000200
2720.106365,-0.000203
2720.588568,-0.000105
2721.070771,-0.000096
2721.552973,-0.000092
2722.035176,0.000020
2722.517379,0.000067
2722.999582,-0.000013
2723.481785,-0.000065
2723.963988,-0.000062
2724.446191,-0.000076
2724.928394,-0.000100
2725.410596,-0.000072
2725.892799,-0.000027
2726.375002,-0.000012
2726.857205,0.000010
2727.339408,-0.000021
2727.821611,-0.000086
2728.303814,-0.000058
2728.786016,-0.000019
2729.268219,-0.000047
2729.750422,-0.000094
2730.232625,-0.000146
2730.714828,-0.000150
2731.197031,-0.000120
2731.679234,-0.000100
2732.161436,-0.000052
2732.643639,-0.000049
2733.125842,-0.000123
2733.608045,-0.000170
2734.090248,-0.000158
2734.572451,-0.000094
2735.054654,-0.000021
2735.536857,-0.000011
2736.019059,-0.000025
2736.501262,-0.000023
2736.983465,-0.000098
2737.465668,-0.000169
2737.947871,-0.000042
2738.430074,0.000024
2738.912277,-0.000118
2739.394479,-0.000155
2739.876682,-0.000160
2740.358885,-0.000282
2740.841088,-0.000230
2741.323291,-0.000029
2741.805494,-0.000007
2742.287697,-0.000060
2742.769900,-0.000026
2743.252102,-0.000056
2743.734305,-0.000097
2744.216508,-0.000049
2744.698711,-0.000045
2745.180914,-0.000076
2745.663117,-0.000123
2746.145320,-0.000146
2746.627522,-0.000080
2747.109725,-0.000097
2747.591928,-0.000136
2748.074131,-0.000046
2748.556334,-0.000023
2749.038537,-0.000078
2749.520740,-0.000088
2750.002943,-0.000109
2750.485145,-0.000128
2750.967348,-0.000105
2751.449551,-0.000118
2751.931754,-0.000167
2752.413957,-0.000153
2752.896160,-0.000077
2753.378363,-0.000043
2753.860565,-0.000137
2754.342768,-0.000210
2754.824971,-0.000111
2755.307174,-0.000048
2755.789377,-0.000058
2756.271580,0.000007
2756.753783,0.000046
2757.235986,0.000056
2757.718188,0.000112
2758.200391,0.000167
2758.682594,0.000150
2759.164797,0.000002
2759.647000,-0.000156
2760.129203,-0.000134
2760.611406,-0.000024
2761.093608,-0.000041
2761.575811,-0.000137
2762.058014,-0.000118
2762.540217,-0.000079
2763.022420,-0.000149
2763.504623,-0.000174
2763.986826,-0.000123
2764.469028,-0.000119
2764.951231,-0.000189
2765.433434,-0.000241
2765.915637,-0.000184
2766.397840,-0.000113
2766.880043,-0.000069
2767.362246,-0.000060
2767.844449,-0.000165
2768.326651,-0.000210
2768.808854,-0.000087
2769.291057,-0.000038
2769.773260,-0.000133
2770.255463,-0.000140
2770.737666,-0.000036
2771.219869,0.000015
2771.702071,-0.000029
2772.184274,-0.000093
2772.666477,-0.000055
2773.148680,-0.000030
2773.630883,-0.000120
2774.113086,-0.000151
2774.595289,-0.000089
2775.077492,-0.000018
2775.559694,-0.000031
2776.041897,-0.000121
2776.524100,-0.000207
2777.006303,-0.000247
2777.488506,-0.000130
2777.970709,0.000011
2778.452912,-0.000022
2778.935114,-0.000116
2779.417317,-0.000139
2779.899520,-0.000050
2780.381723,0.000042
2780.863926,0.000011
2781.346129,-0.000034
2781.828332,-0.000001
2782.310535,0.000032
2782.792737,0.000010
2783.274940,-0.000004
2783.757143,0.000060
2784.239346,0.000085
2784.721549,-0.000030
2785.203752,-0.000082
2785.685955,-0.000037
2786.168157,-0.000039
2786.650360,-0.000003
2787.132563,-0.000027
2787.614766,-0.000129
2788.096969,-0.000101
2788.579172,-0.000030
2789.061375,0.000021
2789.543577,-0.000000
2790.025780,-0.000074
2790.507983,0.000010
2790.990186,0.000051
2791.472389,-0.000078
2791.954592,-0.000132
2792.436795,-0.000056
2792.918998,0.000029
2793.401200,-0.000005
2793.883403,-0.000078
2794.365606,-0.000064
2794.847809,-0.000032
2795.330012,-0.000002
2795.812215,0.000049
2796.294418,0.000043
2796.776620,-0.000078
2797.258823,-0.000113
2797.741026,0.000042
2798.223229,0.000097
2798.705432,-0.000013
2799.187635,-0.000084
2799.669838,-0.000083
2800.152041,-0.000040
2800.634243,-0.000037
2801.116446,-0.000099
2801.598649,-0.000084
2802.080852,-0.000023
2802.563055,-0.000057
2803.045258,-0.000126
2803.527461,-0.000138
2804.009663,-0.000104
2804.491866,-0.000092
2804.974069,-0.000066
2805.456272,0.000020
2805.938475,-0.000007
2806.420678,-0.000098
2806.902881,-0.000043
2807.385084,-0.000068
2807.867286,-0.000212
2808.349489,-0.000190
2808.831692,-0.000128
2809.313895,-0.000089
2809.796098,-0.000008
2810.278301,-0.000026
2810.760504,-0.000090
2811.242706,-0.000119
2811.724909,-0.000067
2812.207112,-0.000013
2812.689315,-0.000163
2813.171518,-0.000209
2813.653721,0.000004
2814.135924,0.000090
2814.618127,-0.000013
2815.100329,-0.000064
2815.582532,-0.000017
2816.064735,-0.000035
2816.546938,-0.000145
2817.029141,-0.000210
2817.511344,-0.000188
2817.993547,-0.000157
2818.475749,-0.000136
2818.957952,-0.000070
2819.440155,-0.000028
2819.922358,0.000001
2820.404561,0.000006
2820.886764,-0.000094
2821.368967,-0.000104
2821.851169,-0.000034
2822.333372,-0.000007
2822.815575,0.000051
2823.297778,-0.000002
2823.779981,-0.000111
2824.262184,-0.000057
2824.744387,-0.000011
2825.226590,-0.000091
2825.708792,-0.000187
2826.190995,-0.000198
2826.673198,-0.000041
2827.155401,0.000073
2827.637604,-0.000072
2828.119807,-0.000182
2828.602010,-0.000095
2829.084212,-0.000032
2829.566415,-0.000022
2830.048618,-0.000041
2830.530821,-0.000140
2831.013024,-0.000191
2831.495227,-0.000101
2831.977430,-0.000050
2832.459633,-0.000059
2832.941835,-0.000037
2833.424038,-0.000080
2833.906241,-0.000095
2834.388444,-0.000038
2834.870647,-0.000022
2835.352850,-0.000050
2835.835053,-0.000163
2836.317255,-0.000171
2836.799458,-0.000047
2837.281661,-0.000075
2837.763864,-0.000116
2838.246067,-0.000036
2838.728270,0.000014
2839.210473,0.000045
2839.692676,0.000035
2840.174878,-0.000090
2840.657081,-0.000139
2841.139284,-0.000014
2841.621487,0.000083
2842.103690,0.000080
2842.585893,0.000031
2843.068096,-0.000047
2843.550298,-0.000107
2844.032501,-0.000127
2844.514704,-0.000137
2844.996907,-0.000117
2845.479110,-0.000094
2845.961313,-0.000142
2846.443516,-0.000170
2846.925719,-0.000205
2847.407921,-0.000221
2847.890124,-0.000061
2848.372327,-0.000011
2848.854530,-0.000103
2849.336733,-0.000101
2849.818936,-0.000053
2850.301139,0.000037
2850.783341,0.000053
2851.265544,0.000024
2851.747747,0.000070
2852.229950,0.000033
2852.712153,-0.000079
2853.194356,-0.000136
2853.676559,-0.000130
2854.158761,-0.000113
2854.640964,-0.000086
2855.123167,-0.000083
2855.605370,-0.000131
2856.087573,-0.000108
2856.569776,0.000015
2857.051979,0.000140
2857.534182,0.000093
2858.016384,-0.000053
2858.498587,-0.000044
2858.980790,0.000037
2859.462993,0.000079
2859.945196,0.000013
2860.427399,-0.000121
2860.909602,-0.000095
2861.391804,-0.000075
2861.874007,-0.000225
2862.356210,-0.000278
2862.838413,-0.000187
2863.320616,-0.000075
2863.802819,0.000080
2864.285022,0.000075
2864.767225,-0.000136
2865.249427,-0.000233
2865.731630,-0.000278
2866.213833,-0.000321
2866.696036,-0.000245
2867.178239,-0.000225
2867.660442,-0.000240
2868.142645,-0.000154
2868.624847,-0.000011
2869.107050,0.000069
2869.589253,0.000066
2870.071456,0.000153
2870.553659,0.000156
2871.035862,0.000078
2871.518065,0.000256
2872.000268,0.000344
2872.482470,0.000115
2872.964673,-0.000050
2873.446876,-0.000089
2873.929079,-0.000124
2874.411282,-0.000083
2874.893485,0.000051
2875.375688,0.000123
2875.857890,0.000063
2876.340093,-0.000012
2876.822296,0.000049
2877.304499,0.000214
2877.786702,0.000280
2878.268905,0.000225
2878.751108,0.000109
2879.233311,0.000068
2879.715513,0.000144
2880.197716,0.000181
2880.679919,0.000188
2881.162122,0.000106
2881.644325,0.000012
2882.126528,0.000085
2882.608731,0.000113
2883.090933,-0.000000
2883.573136,-0.000144
2884.055339,-0.000186
2884.537542,-0.000108
2885.019745,-0.000101
2885.501948,-0.000146
2885.984151,-0.000109
2886.466353,0.000010
2886.948556,0.000105
2887.430759,0.000048
2887.912962,-0.000049
2888.395165,-0.000022
2888.877368,0.000067
2889.359571,0.000040
2889.841774,-0.000040
2890.323976,-0.000025
2890.806179,0.000006
2891.288382,0.000072
2891.770585,0.000096
2892.252788,-0.000001
2892.734991,0.000002
2893.217194,0.000004
2893.699396,-0.000060
2894.181599,-0.000017
2894.663802,0.000011
2895.146005,0.000068
2895.628208,0.000143
2896.110411,0.000063
2896.592614,0.000046
2897.074817,0.000160
2897.557019,0.000151
2898.039222,0.000054
2898.521425,0.000094
2899.003628,0.000135
2899.485831,0.000041
2899.968034,-0.000034
2900.450237,-0.000053
2900.932439,0.000035
2901.414642,0.000170
2901.896845,0.000204
2902.379048,0.000144
2902.861251,-0.000004
2903.343454,-0.000037
2903.825657,0.000091
2904.307860,0.000142
2904.790062,0.000070
2905.272265,-0.000026
2905.754468,-0.000011
2906.236671,0.000043
2906.718874,0.000013
2907.201077,-0.000034
2907.683280,-0.000045
2908.165482,0.000033
2908.647685,0.000082
2909.129888,-0.000027
2909.612091,-0.000097
2910.094294,0.000010
2910.576497,0.000090
2911.058700,0.000035
2911.540902,0.000012
2912.023105,0.000046
2912.505308,0.000110
2912.987511,0.000171
2913.469714,0.000100
2913.951917,0.000078
2914.434120,0.000137
2914.916323,0.000083
2915.398525,0.000070
2915.880728,0.000107
2916.362931,0.000110
2916.845134,0.000134
2917.327337,0.000099
2917.809540,0.000116
2918.291743,0.000224
2918.773945,0.000253
2919.256148,0.000180
2919.738351,-0.000001
2920.220554,-0.000032
2920.702757,0.000178
2921.184960,0.000173
2921.667163,0.000062
2922.149366,0.000166
2922.631568,0.000183
2923.113771,0.000057
2923.595974,-0.000028
2924.078177,-0.000143
2924.560380,-0.000170
2925.042583,-0.000019
2925.524786,0.000054
2926.006988,0.000007
2926.489191,0.000019
2926.971394,0.000069
2927.453597,0.000067
2927.935800,0.000017
2928.418003,-0.000042
2928.900206,-0.000057
2929.382409,0.000022
2929.864611,0.000094
2930.346814,0.000083
2930.829017,0.000124
2931.311220,0.000124
2931.793423,0.000017
2932.275626,-0.000025
2932.757829,-0.000013
2933.240031,0.000007
2933.722234,0.000016
2934.204437,0.000010
2934.686640,-0.000034
2935.168843,-0.000094
2935.651046,0.000012
2936.133249,0.000087
2936.615452,-0.000003
2937.097654,0.000016
2937.579857,0.000074
2938.062060,0.000040
2938.544263,-0.000015
2939.026466,-0.000033
2939.508669,0.000020
2939.990872,0.000028
2940.473074,-0.000025
2940.955277,-0.000038
2941.437480,-0.000048
2941.919683,-0.000083
2942.401886,-0.000056
2942.884089,0.000044
2943.366292,0.000040
2943.848494,-0.000048
2944.330697,-0.000051
2944.812900,-0.000016
2945.295103,0.000013
2945.777306,-0.000070
2946.259509,-0.000271
2946.741712,-0.000307
2947.223915,-0.000238
2947.706117,-0.000208
2948.188320,-0.000158
2948.670523,-0.000122
2949.152726,-0.000074
2949.634929,-0.000036
2950.117132,-0.000048
2950.599335,-0.000081
2951.081537,-0.000143
2951.563740,-0.000150
2952.045943,-0.000102
2952.528146,-0.000005
2953.010349,0.000148
2953.492552,0.000138
2953.974755,0.000020
2954.456958,0.000020
2954.939160,-0.000009
2955.421363,-0.000066
2955.903566,-0.000022
2956.385769,-0.000006
2956.867972,-0.000036
2957.350175,-0.000050
2957.832378,0.000020
2958.314580,0.000127
2958.796783,0.000054
2959.278986,-0.000032
2959.761189,0.000002
2960.243392,-0.000068
2960.725595,-0.000158
2961.207798,-0.000135
2961.690001,-0.000055
2962.172203,0.000106
2962.654406,0.000185
2963.136609,0.000074
2963.618812,-0.000015
2964.101015,-0.000059
2964.583218,-0.000086
2965.065421,-0.000076
2965.547623,-0.000123
2966.029826,-0.000128
2966.512029,-0.000036
2966.994232,0.000026
2967.476435,0.000043
2967.958638,0.000041
2968.440841,0.000032
2968.923044,0.000040
2969.405246,0.000050
2969.887449,0.000051
2970.369652,0.000025
2970.851855,0.000019
2971.334058,0.000127
2971.816261,0.000209
2972.298464,0.000168
2972.780666,0.000115
2973.262869,-0.000013
2973.745072,-0.000142
2974.227275,-0.000124
2974.709478,-0.000065
2975.191681,-0.000006
2975.673884,-0.000007
2976.156086,-0.000039
2976.638289,-0.000043
2977.120492,-0.000133
2977.602695,-0.000139
2978.084898,-0.000013
2978.567101,-0.000008
2979.049304,-0.000053
2979.531507,-0.000058
2980.013709,-0.000079
2980.495912,-0.000094
2980.978115,-0.000108
2981.460318,-0.000136
2981.942521,-0.000110
2982.424724,-0.000041
2982.906927,-0.000087
2983.389129,-0.000148
2983.871332,-0.000072
2984.353535,-0.000054
2984.835738,-0.000086
2985.317941,-0.000096
2985.800144,-0.000146
2986.282347,-0.000100
2986.764550,-0.000052
2987.246752,-0.000044
2987.728955,0.000044
2988.211158,0.000001
2988.693361,-0.000170
2989.175564,-0.000262
2989.657767,-0.000241
2990.139970,-0.000115
2990.622172,0.000008
2991.104375,0.000049
2991.586578,0.000048
2992.068781,0.000034
2992.550984,-0.000024
2993.033187,-0.000048
2993.515390,0.000012
2993.997593,0.000040
2994.479795,0.000067
2994.961998,0.000046
2995.444201,0.000008
2995.926404,0.000104
2996.408607,0.000061
2996.890810,-0.000058
2997.373013,0.000028
2997.855215,0.000066
2998.337418,0.000000
2998.819621,-0.000011
2999.301824,-0.000063
2999.784027,-0.000148
3000.266230,-0.000137
3000.748433,-0.000129
3001.230635,-0.000105
3001.712838,-0.000000
3002.195041,-0.000078
3002.677244,-0.000208
3003.159447,-0.000134
3003.641650,-0.000118
3004.123853,-0.000129
3004.606056,-0.000045
3005.088258,-0.000044
3005.570461,-0.000057
3006.052664,-0.000024
3006.534867,-0.000015
3007.017070,-0.000015
3007.499273,-0.000106
3007.981476,-0.000168
3008.463678,-0.000090
3008.945881,-0.000144
3009.428084,-0.000228
3009.910287,-0.000142
3010.392490,-0.000164
3010.874693,-0.000265
3011.356896,-0.000190
3011.839099,-0.000020
3012.321301,0.000011
3012.803504,-0.000064
3013.285707,0.000009
3013.767910,0.000079
3014.250113,-0.000085
3014.732316,-0.000252
3015.214519,-0.000189
3015.696721,0.000012
3016.178924,0.000089
3016.661127,0.000005
3017.143330,-0.000054
3017.625533,0.000003
3018.107736,0.000105
3018.589939,0.000100
3019.072142,-0.000021
3019.554344,-0.000102
3020.036547,-0.000113
3020.518750,-0.000108
3021.000953,-0.000066
3021.483156,-0.000074
3021.965359,-0.000128
3022.447562,-0.000061
3022.929764,-0.000016
3023.411967,-0.000035
3023.894170,0.000039
3024.376373,-0.000001
3024.858576,-0.000127
3025.340779,-0.000065
3025.822982,0.000058
3026.305185,0.000086
3026.787387,0.000054
3027.269590,0.000006
3027.751793,-0.000045
3028.233996,-0.000064
3028.716199,0.000028
3029.198402,0.000138
3029.680605,0.000133
3030.162807,0.000056
3030.645010,0.000003
3031.127213,-0.000002
3031.609416,-0.000023
3032.091619,-0.000065
3032.573822,-0.000089
3033.056025,-0.000128
3033.538227,-0.000125
3034.020430,-0.000067
3034.502633,-0.000093
3034.984836,-0.000145
3035.467039,-0.000109
3035.949242,-0.000026
3036.431445,0.000048
3036.913648,-0.000011
3037.395850,-0.000174
3037.878053,-0.000179
3038.360256,-0.000082
3038.842459,-0.000060
3039.324662,-0.000067
3039.806865,-0.000107
3040.289068,-0.000164
3040.771270,-0.000122
3041.253473,-0.000006
3041.735676,0.000059
3042.217879,0.000027
3042.700082,-0.000016
3043.182285,-0.000107
3043.664488,-0.000311
3044.146691,-0.000293
3044.628893,-0.000028
3045.111096,0.000008
3045.593299,-0.000078
3046.075502,-0.000001
3046.557705,0.000053
3047.039908,-0.000014
3047.522111,-0.000088
3048.004313,-0.000064
3048.486516,-0.000038
3048.968719,-0.000119
3049.450922,-0.000139
3049.933125,-0.000084
3050.415328,-0.000011
3050.897531,0.000091
3051.379734,0.000058
3051.861936,-0.000067
3052.344139,-0.000097
3052.826342,-0.000045
3053.308545,-0.000038
3053.790748,-0.000153
3054.272951,-0.000224
3054.755154,-0.000190
3055.237356,-0.000139
3055.719559,-0.000072
3056.201762,-0.000088
3056.683965,-0.000063
3057.166168,0.000089
3057.648371,0.000098
3058.130574,-0.000019
3058.612777,-0.000044
3059.094979,0.000083
3059.577182,0.000107
3060.059385,-0.000075
3060.541588,-0.000102
3061.023791,-0.000016
3061.505994,0.000015
3061.988197,0.000013
3062.470399,-0.000038
3062.952602,0.000006
3063.434805,-0.000018
3063.917008,-0.000133
3064.399211,-0.000074
3064.881414,0.000012
3065.363617,0.000105
3065.845819,0.000170
3066.328022,0.000007
3066.810225,-0.000175
3067.292428,-0.000121
3067.774631,-0.000004
3068.256834,-0.000045
3068.739037,-0.000075
3069.221240,-0.000032
3069.703442,-0.000027
3070.185645,0.000003
3070.667848,-0.000035
3071.150051,-0.000122
3071.632254,-0.000081
3072.114457,-0.000077
3072.596660,-0.000147
3073.078862,-0.000109
3073.561065,-0.000144
3074.043268,-0.000246
3074.525471,-0.000100
3075.007674,0.000121
3075.489877,0.000163
3075.972080,0.000056
3076.454283,-0.000004
3076.936485,0.000053
3077.418688,-0.000039
3077.900891,-0.000125
3078.383094,-0.000030
3078.865297,0.000047
3079.347500,0.000109
3079.829703,0.000016
3080.311905,-0.000187
3080.794108,-0.000247
3081.276311,-0.000209
3081.758514,-0.000105
3082.240717,-0.000061
3082.722920,-0.000093
3083.205123,-0.000081
3083.687326,-0.000106
3084.169528,-0.000196
3084.651731,-0.000230
3085.133934,-0.000132
3085.616137,-0.000098
3086.098340,-0.000151
3086.580543,-0.000090
3087.062746,-0.000063
3087.544948,-0.000081
3088.027151,-0.000020
3088.509354,0.000040
3088.991557,0.000066
3089.473760,0.000024
3089.955963,-0.000035
3090.438166,-0.000011
3090.920368,0.000074
3091.402571,0.000141
3091.884774,0.000055
3092.366977,-0.000129
3092.849180,-0.000202
3093.331383,-0.000190
3093.813586,-0.000158
3094.295789,-0.000053
3094.777991,0.000024
3095.260194,0.000073
3095.742397,0.000153
3096.224600,0.000103
3096.706803,0.000058
3097.189006,0.000091
3097.671209,0.000045
3098.153411,0.000023
3098.635614,-0.000012
3099.117817,-0.000046
3099.600020,-0.000012
3100.082223,-0.000036
3100.564426,-0.000015
3101.046629,-0.000025
3101.528832,-0.000151
3102.011034,-0.000196
3102.493237,-0.000182
3102.975440,-0.000146
3103.457643,-0.000083
3103.939846,-0.000045
3104.422049,-0.000042
3104.904252,-0.000032
3105.386454,0.000089
3105.868657,0.000189
3106.350860,0.000082
3106.833063,-0.000141
3107.315266,-0.000258
3107.797469,-0.000169
3108.279672,-0.000125
3108.761875,-0.000266
3109.244077,-0.000331
3109.726280,-0.000252
3110.208483,-0.000155
3110.690686,-0.000064
3111.172889,0.000018
3111.655092,0.000083
3112.137295,0.000119
3112.619497,0.000130
3113.101700,0.000118
3113.583903,0.000052
3114.066106,-0.000044
3114.548309,-0.000098
3115.030512,-0.000117
3115.512715,-0.000096
3115.994918,-0.000047
3116.477120,-0.000065
3116.959323,-0.000106
3117.441526,-0.000087
3117.923729,-0.000052
3118.405932,0.000019
3118.888135,0.000086
3119.370338,-0.000012
3119.852540,-0.000200
3120.334743,-0.000157
3120.816946,0.000086
3121.299149,0.000189
3121.781352,0.000204
3122.263555,0.000157
3122.745758,-0.000070
3123.227960,-0.000154
3123.710163,0.000001
3124.192366,0.000056
3124.674569,-0.000006
3125.156772,-0.000053
3125.638975,-0.000088
3126.121178,0.000007
3126.603381,0.000142
3127.085583,0.000110
3127.567786,0.000139
3128.049989,0.000161
3128.532192,-0.000007
3129.014395,-0.000058
3129.496598,-0.000033
3129.978801,0.000046
3130.461003,0.000238
3130.943206,0.000145
3131.425409,-0.000119
3131.907612,-0.000143
3132.389815,-0.000029
3132.872018,0.000023
3133.354221,-0.000011
3133.836424,-0.000031
3134.318626,-0.000039
3134.800829,-0.000039
3135.283032,0.000018
3135.765235,0.000029
3136.247438,0.000012
3136.729641,0.000014
3137.211844,-0.000026
3137.694046,0.000024
3138.176249,0.000117
3138.658452,0.000076
3139.140655,0.000069
3139.622858,0.000082
3140.105061,-0.000002
3140.587264,-0.000078
3141.069467,-0.000140
3141.551669,-0.000078
3142.033872,0.000009
3142.516075,-0.000124
3142.998278,-0.000170
3143.480481,-0.000014
3143.962684,-0.000001
3144.444887,-0.000109
3144.927089,-0.000104
3145.409292,-0.000044
3145.891495,-0.000021
3146.373698,0.000024
3146.855901,0.000056
3147.338104,0.000051
3147.820307,0.000029
3148.302510,-0.000012
3148.784712,-0.000030
3149.266915,-0.000030
3149.749118,0.000035
3150.231321,0.000065
3150.713524,-0.000110
3151.195727,-0.000200
3151.677930,-0.000082
3152.160132,-0.000083
3152.642335,-0.000157
3153.124538,-0.000133
3153.606741,-0.000061
3154.088944,0.000051
3154.571147,0.000005
3155.053350,-0.000199
3155.535552,-0.000272
3156.017755,-0.000279
3156.499958,-0.000273
3156.982161,-0.000172
3157.464364,-0.000062
3157.946567,-0.000045
3158.428770,-0.000050
3158.910973,-0.000024
3159.393175,-0.000045
3159.875378,0.000034
3160.357581,0.000181
3160.839784,0.000089
3161.321987,-0.000054
3161.804190,0.000001
3162.286393,0.000093
3162.768595,0.000147
3163.250798,0.000228
3163.733001,0.000191
3164.215204,0.000054
3164.697407,0.000032
3165.179610,-0.000057
3165.661813,-0.000197
3166.144016,-0.000159
3166.626218,-0.000096
3167.108421,-0.000077
3167.590624,0.000031
3168.072827,0.000175
3168.555030,0.000105
3169.037233,-0.000021
3169.519436,0.000040
3170.001638,0.000037
3170.483841,-0.000036
3170.966044,-0.000039
3171.448247,-0.000034
3171.930450,-0.000017
3172.412653,-0.000062
3172.894856,-0.000137
3173.377059,-0.000076
3173.859261,0.000087
3174.341464,0.000142
3174.823667,0.000011
3175.305870,-0.000121
3175.788073,-0.000179
3176.270276,-0.000242
3176.752479,-0.000226
3177.234681,-0.000087
3177.716884,0.000050
3178.199087,0.000135
3178.681290,0.000046
3179.163493,-0.000160
3179.645696,-0.000128
3180.127899,0.000010
3180.610102,0.000005
3181.092304,0.000058
3181.574507,0.000185
3182.056710,0.000193
3182.538913,0.000123
3183.021116,0.000101
3183.503319,0.000054
3183.985522,-0.000067
3184.467724,-0.000108
3184.949927,-0.000092
3185.432130,-0.000149
3185.914333,-0.000146
3186.396536,0.000008
3186.878739,0.000068
3187.360942,-0.000022
3187.843144,-0.000033
3188.325347,-0.000033
3188.807550,-0.000055
3189.289753,0.000087
3189.771956,0.000204
3190.254159,0.000119
3190.736362,0.000078
3191.218565,0.000111
3191.700767,-0.000017
3192.182970,-0.000252
3192.665173,-0.000320
3193.147376,-0.000231
3193.629579,-0.000147
3194.111782,0.000034
3194.593985,0.000089
3195.076187,-0.000127
3195.558390,-0.000140
3196.040593,-0.000066
3196.522796,-0.000139
3197.004999,-0.000115
3197.487202,-0.000093
3197.969405,-0.000070
3198.451608,0.000018
3198.933810,0.000087
3199.416013,0.000171
3199.898216,0.000076
3200.380419,-0.000029
3200.862622,0.000186
3201.344825,0.000329
3201.827028,0.000196
3202.309230,0.000059
3202.791433,-0.000029
3203.273636,-0.000014
3203.755839,0.000068
3204.238042,-0.000033
3204.720245,-0.000239
3205.202448,-0.000328
3205.684651,-0.000249
3206.166853,-0.000077
3206.649056,-0.000035
3207.131259,-0.000077
3207.613462,0.000027
3208.095665,0.000159
3208.577868,0.000110
3209.060071,0.000009
3209.542273,0.000071
3210.024476,0.000106
3210.506679,-0.000060
3210.988882,-0.000094
3211.471085,0.000076
3211.953288,0.000066
3212.435491,-0.000067
3212.917693,-0.000013
3213.399896,0.000040
3213.882099,-0.000132
3214.364302,-0.000207
3214.846505,0.000079
3215.328708,0.000261
3215.810911,0.000099
3216.293114,0.000083
3216.775316,0.000140
3217.257519,0.000014
3217.739722,0.000044
3218.221925,0.000125
3218.704128,-0.000029
3219.186331,-0.000163
3219.668534,-0.000066
3220.150736,0.000041
3220.632939,-0.000079
3221.115142,-0.000187
3221.597345,-0.000088
3222.079548,0.000088
3222.561751,0.000260
3223.043954,0.000285
3223.526157,0.000118
3224.008359,-0.000002
3224.490562,0.000042
3224.972765,0.000048
3225.454968,-0.000093
3225.937171,-0.000148
3226.419374,-0.000083
3226.901577,0.000080
3227.383779,0.000365
3227.865982,0.000336
3228.348185,-0.000012
3228.830388,-0.000066
3229.312591,0.000059
3229.794794,0.000015
3230.276997,0.000046
3230.759200,0.000115
3231.241402,0.000033
3231.723605,0.000024
3232.205808,0.000043
3232.688011,-0.000082
3233.170214,-0.000084
3233.652417,0.000072
3234.134620,0.000021
3234.616822,-0.000087
3235.099025,0.000068
3235.581228,0.000167
3236.063431,0.000132
3236.545634,0.000175
3237.027837,0.000027
3237.510040,-0.000262
3237.992243,-0.000326
3238.474445,-0.000222
3238.956648,-0.000152
3239.438851,-0.000160
3239.921054,-0.000030
3240.403257,0.000186
3240.885460,0.000144
3241.367663,0.000080
3241.849865,0.000147
3242.332068,0.000125
3242.814271,0.000180
3243.296474,0.000238
3243.778677,0.000120
3244.260880,0.000042
3244.743083,0.000023
3245.225285,0.000005
3245.707488,-0.000037
3246.189691,-0.000069
3246.671894,0.000006
3247.154097,0.000098
3247.636300,0.000244
3248.118503,0.000325
3248.600706,0.000150
3249.082908,0.000025
3249.565111,0.000000
3250.047314,-0.000100
3250.529517,-0.000067
3251.011720,0.000062
3251.493923,0.000108
3251.976126,0.000149
3252.458328,0.000155
3252.940531,0.000172
3253.422734,0.000253
3253.904937,0.000252
3254.387140,0.000184
3254.869343,0.000109
3255.351546,0.000132
3255.833749,0.000193
3256.315951,0.000048
3256.798154,-0.000048
3257.280357,0.000069
3257.762560,0.000122
3258.244763,0.000078
3258.726966,0.000043
3259.209169,0.000002
3259.691371,-0.000011
3260.173574,0.000104
3260.655777,0.000111
3261.137980,-0.000051
3261.620183,-0.000024
3262.102386,0.000120
3262.584589,0.000210
3263.066792,0.000176
3263.548994,-0.000055
3264.031197,-0.000145
3264.513400,-0.000084
3264.995603,-0.000156
3265.477806,-0.000160
3265.960009,-0.000060
3266.442212,-0.000080
3266.924414,-0.000060
3267.406617,-0.000019
3267.888820,-0.000130
3268.371023,-0.000092
3268.853226,0.000073
3269.335429,-0.000008
3269.817632,-0.000143
3270.299835,-0.000028
3270.782037,0.000201
3271.264240,0.000225
3271.746443,0.000065
3272.228646,0.000042
3272.710849,0.000125
3273.193052,0.000127
3273.675255,0.000179
3274.157457,0.000258
3274.639660,0.000156
3275.121863,-0.000018
3275.604066,-0.000071
3276.086269,-0.000028
3276.568472,-0.000069
3277.050675,-0.000166
3277.532877,-0.000074
3278.015080,0.000073
3278.497283,0.000097
3278.979486,0.000048
3279.461689,0.000023
3279.943892,0.000135
3280.426095,0.000235
3280.908298,0.000256
3281.390500,0.000211
3281.872703,0.000063
3282.354906,0.000054
3282.837109,0.000045
3283.319312,-0.000119
3283.801515,-0.000135
3284.283718,-0.000160
3284.765920,-0.000298
3285.248123,-0.000213
3285.730326,0.000032
3286.212529,0.000058
3286.694732,-0.000187
3287.176935,-0.000254
3287.659138,-0.000031
3288.141341,0.000006
3288.623543,-0.000047
3289.105746,0.000093
3289.587949,0.000132
3290.070152,0.000093
3290.552355,0.000130
3291.034558,0.000073
3291.516761,0.000052
3291.998963,0.000054
3292.481166,-0.000127
3292.963369,-0.000189
3293.445572,-0.000064
3293.927775,-0.000085
3294.409978,-0.000158
3294.892181,-0.000084
3295.374384,0.000035
3295.856586,0.000060
3296.338789,-0.000042
3296.820992,-0.000095
3297.303195,0.000019
3297.785398,0.000098
3298.267601,0.000105
3298.749804,0.000110
3299.232006,0.000040
3299.714209,-0.000036
3300.196412,-0.000161
3300.678615,-0.000205
3301.160818,0.000007
3301.643021,0.000031
3302.125224,-0.000082
3302.607426,-0.000031
3303.089629,-0.000077
3303.571832,-0.000097
3304.054035,0.000031
3304.536238,0.000067
3305.018441,-0.000014
3305.500644,-0.000064
3305.982847,-0.000028
3306.465049,-0.000076
3306.947252,-0.000124
3307.429455,-0.000055
3307.911658,-0.000012
3308.393861,0.000080
3308.876064,0.000075
3309.358267,-0.000108
3309.840469,-0.000106
3310.322672,-0.000050
3310.804875,-0.000190
3311.287078,-0.000254
3311.769281,-0.000149
3312.251484,-0.000013
3312.733687,0.000126
3313.215890,0.000128
3313.698092,-0.000002
3314.180295,-0.000067
3314.662498,-0.000101
3315.144701,-0.000112
3315.626904,-0.000040
3316.109107,0.000065
3316.591310,0.000089
3317.073512,-0.000024
3317.555715,-0.000042
3318.037918,0.000085
3318.520121,0.000049
3319.002324,-0.000135
3319.484527,-0.000082
3319.966730,0.000177
3320.448933,0.000210
3320.931135,0.000092
3321.413338,0.000083
3321.895541,0.000113
3322.377744,0.000085
3322.859947,-0.000056
3323.342150,-0.000111
3323.824353,-0.000047
3324.306555,-0.000144
3324.788758,-0.000226
3325.270961,-0.000070
3325.753164,0.000068
3326.235367,-0.000062
3326.717570,-0.000210
3327.199773,-0.000052
3327.681976,0.000097
3328.164178,-0.000034
3328.646381,-0.000177
3329.128584,-0.000221
3329.610787,-0.000191
3330.092990,-0.000057
3330.575193,-0.000009
3331.057396,-0.000110
3331.539598,-0.000085
3332.021801,0.000133
3332.504004,0.000173
3332.986207,-0.000073
3333.468410,-0.000086
3333.950613,0.000162
3334.432816,0.000146
3334.915018,-0.000038
3335.397221,-0.000033
3335.879424,0.000066
3336.361627,0.000017
3336.843830,0.000002
3337.326033,0.000111
3337.808236,0.000019
3338.290439,-0.000090
3338.772641,-0.000133
3339.254844,-0.000228
3339.737047,-0.000098
3340.219250,0.000072
3340.701453,0.000133
3341.183656,0.000233
3341.665859,0.000248
3342.148061,0.000191
3342.630264,0.000119
3343.112467,0.000088
3343.594670,0.000100
3344.076873,0.000028
3344.559076,-0.000016
3345.041279,0.000031
3345.523482,-0.000037
3346.005684,-0.000042
3346.487887,0.000214
3346.970090,0.000236
3347.452293,0.000029
3347.934496,0.000061
3348.416699,0.000189
3348.898902,0.000137
3349.381104,-0.000068
3349.863307,-0.000071
3350.345510,0.000016
3350.827713,-0.000073
3351.309916,-0.000011
3351.792119,-0.000011
3352.274322,-0.000153
3352.756525,-0.000092
3353.238727,-0.000080
3353.720930,-0.000068
3354.203133,0.000010
3354.685336,-0.000072
3355.167539,-0.000101
3355.649742,-0.000128
3356.131945,-0.000236
3356.614147,-0.000210
3357.096350,-0.000181
3357.578553,-0.000168
3358.060756,-0.000121
3358.542959,-0.000092
3359.025162,0.000092
3359.507365,0.000241
3359.989568,0.000069
3360.471770,-0.000125
3360.953973,-0.000025
3361.436176,0.000189
3361.918379,0.000113
3362.400582,-0.000165
3362.882785,-0.000282
3363.364988,-0.000268
3363.847190,-0.000181
3364.329393,0.000010
3364.811596,0.000207
3365.293799,0.000371
3365.776002,0.000334
3366.258205,0.000159
3366.740408,0.000131
3367.222610,0.000000
3367.704813,-0.000127
3368.187016,-0.000012
3368.669219,-0.000042
3369.151422,-0.000142
3369.633625,-0.000083
3370.115828,0.000045
3370.598031,0.000095
3371.080233,-0.000004
3371.562436,-0.000060
3372.044639,-0.000126
3372.526842,-0.000146
3373.009045,-0.000006
3373.491248,0.000007
3373.973451,-0.000066
3374.455653,-0.000052
3374.937856,-0.000054
3375.420059,-0.000060
3375.902262,0.000034
3376.384465,0.000101
3376.866668,-0.000066
3377.348871,-0.000296
3377.831074,-0.000256
3378.313276,-0.000070
3378.795479,-0.000032
3379.277682,-0.000017
3379.759885,0.000017
3380.242088,-0.000065
3380.724291,-0.000084
3381.206494,-0.000116
3381.688696,-0.000265
3382.170899,-0.000204
3382.653102,-0.000125
3383.135305,-0.000229
3383.617508,-0.000168
3384.099711,0.000007
3384.581914,0.000146
3385.064117,0.000152
3385.546319,0.000056
3386.028522,0.000087
3386.510725,0.000046
3386.992928,0.000030
3387.475131,0.000069
3387.957334,-0.000116
3388.439537,-0.000164
3388.921739,-0.000139
3389.403942,-0.000252
3389.886145,-0.000242
3390.368348,-0.000132
3390.850551,0.000065
3391.332754,0.000206
3391.814957,0.000147
3392.297160,0.000036
3392.779362,-0.000120
3393.261565,-0.000184
3393.743768,-0.000041
3394.225971,0.000026
3394.708174,-0.000081
3395.190377,-0.000150
3395.672580,-0.000198
3396.154782,-0.000317
3396.636985,-0.000285
3397.119188,-0.000104
3397.601391,-0.000126
3398.083594,-0.000146
3398.565797,0.000058
3399.048000,0.000081
3399.530202,-0.000110
3400.012405,-0.000240
3400.494608,-0.000175
3400.976811,0.000025
3401.459014,0.000022
3401.941217,-0.000066
3402.423420,0.000030
3402.905623,0.000125
3403.387825,0.000122
3403.870028,0.000109
3404.352231,0.000105
3404.834434,0.000004
3405.316637,-0.000062
3405.798840,0.000064
3406.281043,0.000064
3406.763245,-0.000056
3407.245448,-0.000007
3407.727651,-0.000054
3408.209854,-0.000127
3408.692057,-0.000027
3409.174260,-0.000063
3409.656463,0.000004
3410.138666,0.000225
3410.620868,0.000208
3411.103071,0.000163
3411.585274,0.000134
3412.067477,0.000055
3412.549680,0.000045
3413.031883,0.000044
3413.514086,0.000035
3413.996288,0.000083
3414.478491,0.000083
3414.960694,-0.000210
3415.442897,-0.000361
3415.925100,-0.000094
3416.407303,0.000005
3416.889506,0.000031
3417.371709,0.000215
3417.853911,0.000249
3418.336114,0.000136
3418.818317,0.000060
3419.300520,0.000010
3419.782723,-0.000031
3420.264926,-0.000009
3420.747129,-0.000110
3421.229331,-0.000202
3421.711534,-0.000023
3422.193737,0.000102
3422.675940,0.000079
3423.158143,0.000045
3423.640346,-0.000071
3424.122549,-0.000135
3424.604751,0.000026
3425.086954,0.000073
3425.569157,-0.000171
3426.051360,-0.000296
3426.533563,-0.000248
3427.015766,-0.000189
3427.497969,-0.000155
3427.980172,-0.000031
3428.462374,0.000088
3428.944577,-0.000155
3429.426780,-0.000258
3429.908983,-0.000113
3430.391186,-0.000242
3430.873389,-0.000271
3431.355592,-0.000090
3431.837794,-0.000005
3432.319997,0.000002
3432.802200,-0.000062
3433.284403,-0.000115
3433.766606,-0.000083
3434.248809,-0.000100
3434.731012,-0.000169
3435.213215,-0.000126
3435.695417,-0.000099
3436.177620,-0.000163
3436.659823,-0.000236
3437.142026,-0.000296
3437.624229,-0.000219
3438.106432,-0.000042
3438.588635,0.000141
3439.070837,0.000223
3439.553040,0.000138
3440.035243,0.000047
3440.517446,0.000005
3440.999649,-0.000061
3441.481852,-0.000136
3441.964055,0.000016
3442.446258,0.000218
3442.928460,0.000206
3443.410663,0.000263
3443.892866,0.000208
3444.375069,-0.000064
3444.857272,-0.000187
3445.339475,-0.000045
3445.821678,0.000231
3446.303880,0.000153
3446.786083,-0.000128
3447.268286,-0.000088
3447.750489,-0.000034
3448.232692,-0.000087
3448.714895,-0.000053
3449.197098,-0.000042
3449.679301,-0.000069
3450.161503,-0.000112
3450.643706,-0.000151
3451.125909,-0.000017
3451.608112,0.000093
3452.090315,0.000088
3452.572518,0.000218
3453.054721,0.000257
3453.536923,0.000240
3454.019126,0.000213
3454.501329,-0.000007
3454.983532,0.000094
3455.465735,0.000374
3455.947938,0.000351
3456.430141,0.000198
3456.912343,-0.000051
3457.394546,-0.000149
3457.876749,-0.000037
3458.358952,0.000047
3458.841155,0.000029
3459.323358,-0.000156
3459.805561,-0.000227
3460.287764,-0.000130
3460.769966,-0.000021
3461.252169,0.000105
3461.734372,0.000145
3462.216575,0.000136
3462.698778,0.000026
3463.180981,-0.000142
3463.663184,-0.000141
3464.145386,-0.000075
3464.627589,0.000033
3465.109792,0.000192
3465.591995,0.000126
3466.074198,-0.000138
3466.556401,-0.000262
3467.038604,-0.000219
3467.520807,-0.000171
3468.003009,-0.000067
3468.485212,0.000070
3468.967415,0.000061
3469.449618,0.000008
3469.931821,0.000008
3470.414024,-0.000033
3470.896227,-0.000068
3471.378429,-0.000063
3471.860632,-0.000054
3472.342835,0.000047
3472.825038,0.000176
3473.307241,0.000099
3473.789444,0.000051
3474.271647,0.000143
3474.753850,0.000091
3475.236052,0.000178
3475.718255,0.000263
3476.200458,-0.000020
3476.682661,-0.000223
3477.164864,-0.000355
3477.647067,-0.000490
3478.129270,-0.000423
3478.611472,-0.000206
3479.093675,0.000110
3479.575878,0.000218
3480.058081,0.000102
3480.540284,0.000014
3481.022487,-0.000090
3481.504690,-0.000182
3481.986893,-0.000163
3482.469095,-0.000125
3482.951298,-0.000247
3483.433501,-0.000337
3483.915704,-0.000189
3484.397907,0.000097
3484.880110,0.000200
3485.362313,-0.000094
3485.844515,-0.000174
3486.326718,0.000061
3486.808921,0.000129
3487.291124,0.000249
3487.773327,0.000207
3488.255530,-0.000087
3488.737733,-0.000090
3489.219935,-0.000026
3489.702138,-0.000051
3490.184341,0.000095
3490.666544,0.000199
3491.148747,0.000115
3491.630950,0.000017
3492.113153,0.000020
3492.595356,-0.000008
3493.077558,-0.000180
3493.559761,-0.000274
3494.041964,-0.000311
3494.524167,-0.000305
3495.006370,0.000048
3495.488573,0.000457
3495.970776,0.000577
3496.452978,0.000492
3496.935181,0.000232
3497.417384,0.000129
3497.899587,0.000207
3498.381790,0.000147
3498.863993,0.000191
3499.346196,0.000287
3499.828399,0.000150
3500.310601,0.000041
3500.792804,0.000017
3501.275007,-0.000033
3501.757210,-0.000091
3502.239413,-0.000212
3502.721616,-0.000292
3503.203819,-0.000348
3503.686021,-0.000323
3504.168224,-0.000185
3504.650427,-0.000303
3505.132630,-0.000343
3505.614833,-0.000048
3506.097036,-0.000013
3506.579239,-0.000204
3507.061442,-0.000254
3507.543644,-0.000190
3508.025847,-0.000248
3508.508050,-0.000401
3508.990253,-0.000298
3509.472456,-0.000122
3509.954659,-0.000180
3510.436862,-0.000346
3510.919064,-0.000451
3511.401267,-0.000406
3511.883470,-0.000118
3512.365673,0.000228
3512.847876,0.000185
3513.330079,0.000106
3513.812282,0.000326
3514.294484,0.000325
3514.776687,0.000154
3515.258890,0.000128
3515.741093,0.000063
3516.223296,-0.000119
3516.705499,-0.000198
3517.187702,-0.000143
3517.669905,-0.000140
3518.152107,0.000036
3518.634310,0.000263
3519.116513,0.000108
3519.598716,0.000114
3520.080919,0.000367
3520.563122,0.000171
3521.045325,-0.000079
3521.527527,-0.000014
3522.009730,-0.000015
3522.491933,0.000019
3522.974136,0.000025
3523.456339,-0.000117
3523.938542,-0.000114
3524.420745,-0.000099
3524.902948,-0.000073
3525.385150,0.000096
3525.867353,0.000172
3526.349556,0.000221
3526.831759,0.000184
3527.313962,-0.000083
3527.796165,-0.000173
3528.278368,-0.000124
3528.760570,-0.000191
3529.242773,-0.000114
3529.724976,-0.000020
3530.207179,-0.000129
3530.689382,-0.000218
3531.171585,-0.000197
3531.653788,-0.000087
3532.135991,0.000006
3532.618193,-0.000030
3533.100396,-0.000037
3533.582599,-0.000011
3534.064802,-0.000108
3534.547005,-0.000113
3535.029208,-0.000032
3535.511411,-0.000144
3535.993613,-0.000170
3536.475816,-0.000073
3536.958019,-0.000173
3537.440222,-0.000294
3537.922425,-0.000273
3538.404628,-0.000159
3538.886831,-0.000037
3539.369034,-0.000040
3539.851236,-0.000109
3540.333439,-0.000054
3540.815642,0.000025
3541.297845,-0.000036
3541.780048,-0.000022
3542.262251,0.000082
3542.744454,0.000037
3543.226656,-0.000045
3543.708859,-0.000036
3544.191062,-0.000029
3544.673265,-0.000060
3545.155468,-0.000121
3545.637671,-0.000087
3546.119874,0.000080
3546.602076,0.000065
3547.084279,-0.000001
3547.566482,0.000164
3548.048685,0.000121
3548.530888,-0.000106
3549.013091,-0.000089
3549.495294,-0.000009
3549.977497,0.000029
3550.459699,0.000044
3550.941902,-0.000038
3551.424105,-0.000055
3551.906308,-0.000017
3552.388511,-0.000067
3552.870714,-0.000078
3553.352917,-0.000025
3553.835119,-0.000033
3554.317322,-0.000152
3554.799525,-0.000255
3555.281728,-0.000127
3555.763931,0.000020
3556.246134,0.000010
3556.728337,0.000046
3557.210540,0.000146
3557.692742,0.000227
3558.174945,0.000227
3558.657148,0.000125
3559.139351,0.000046
3559.621554,-0.000004
3560.103757,-0.000093
3560.585960,-0.000070
3561.068162,0.000077
3561.550365,0.000014
3562.032568,-0.000131
3562.514771,-0.000046
3562.996974,0.000020
3563.479177,-0.000003
3563.961380,-0.000026
3564.443583,-0.000170
3564.925785,-0.000284
3565.407988,-0.000388
3565.890191,-0.000545
3566.372394,-0.000347
3566.854597,-0.000113
3567.336800,-0.000285
3567.819003,-0.000306
3568.301205,-0.000215
3568.783408,-0.000180
3569.265611,0.000122
3569.747814,0.000156
3570.230017,-0.000087
3570.712220,0.000022
3571.194423,0.000110
3571.676626,-0.000032
3572.158828,0.000035
3572.641031,0.000207
3573.123234,0.000116
3573.605437,-0.000045
3574.087640,0.000001
3574.569843,0.000001
3575.052046,-0.000121
3575.534248,-0.000032
3576.016451,0.000189
3576.498654,0.000118
3576.980857,-0.000128
3577.463060,0.000006
3577.945263,0.000365
3578.427466,0.000439
3578.909668,0.000415
3579.391871,0.000500
3579.874074,0.000406
3580.356277,0.000095
3580.838480,-0.000080
3581.320683,-0.000002
3581.802886,0.000106
3582.285089,0.000135
3582.767291,0.000128
3583.249494,0.000116
3583.731697,0.000203
3584.213900,0.000222
3584.696103,-0.000028
3585.178306,-0.000119
3585.660509,0.000060
3586.142711,0.000085
3586.624914,-0.000130
3587.107117,-0.000312
3587.589320,-0.000133
3588.071523,0.000044
3588.553726,-0.000192
3589.035929,-0.000387
3589.518132,-0.000122
3590.000334,0.000326
3590.482537,0.000513
3590.964740,0.000381
3591.446943,0.000165
3591.929146,0.000055
3592.411349,0.000064
3592.893552,-0.000084
3593.375754,-0.000246
3593.857957,-0.000061
3594.340160,0.000078
3594.822363,-0.000010
3595.304566,-0.000056
3595.786769,-0.000107
3596.268972,-0.000146
3596.751175,0.000040
3597.233377,0.000398
3597.715580,0.000475
3598.197783,0.000196
3598.679986,0.000001
3599.162189,0.000040
3599.644392,0.000289
3600.126595,0.000397
3600.608797,0.000143
3601.091000,0.000038
3601.573203,0.000062
3602.055406,0.000013
3602.537609,0.000116
3603.019812,0.000201
3603.502015,0.000158
3603.984217,0.000202
3604.466420,0.000303
3604.948623,0.000322
3605.430826,0.000298
3605.913029,0.000166
3606.395232,-0.000018
3606.877435,-0.000034
3607.359638,-0.000055
3607.841840,-0.000057
3608.324043,-0.000039
3608.806246,-0.000206
3609.288449,-0.000251
3609.770652,-0.000222
3610.252855,-0.000373
3610.735058,-0.000383
3611.217260,-0.000133
3611.699463,0.000105
3612.181666,0.000126
3612.663869,0.000050
3613.146072,0.000024
3613.628275,0.000122
3614.110478,0.000252
3614.592681,0.000206
3615.074883,0.000042
3615.557086,-0.000089
3616.039289,-0.000124
3616.521492,-0.000167
3617.003695,-0.000236
3617.485898,-0.000088
3617.968101,0.000058
3618.450303,-0.000016
3618.932506,0.000042
3619.414709,0.000038
3619.896912,-0.000141
3620.379115,0.000058
3620.861318,0.000312
3621.343521,0.000174
3621.825724,0.000038
3622.307926,0.000164
3622.790129,0.000316
3623.272332,0.000141
3623.754535,-0.000152
3624.236738,-0.000238
3624.718941,-0.000281
3625.201144,-0.000250
3625.683346,-0.000184
3626.165549,-0.000163
3626.647752,-0.000012
3627.129955,0.000076
3627.612158,0.000022
3628.094361,-0.000115
3628.576564,-0.000423
3629.058767,-0.000573
3629.540969,-0.000478
3630.023172,-0.000414
3630.505375,-0.000180
3630.987578,0.000155
3631.469781,0.000235
3631.951984,0.000200
3632.434187,0.000269
3632.916389,0.000230
3633.398592,0.000127
3633.880795,0.000103
3634.362998,0.000001
3634.845201,0.000080
3635.327404,0.000314
3635.809607,0.000414
3636.291809,0.000542
3636.774012,0.000447
3637.256215,0.000190
3637.738418,0.000244
3638.220621,0.000267
3638.702824,0.000173
3639.185027,0.000291
3639.667230,0.000419
3640.149432,0.000366
3640.631635,0.000230
3641.113838,0.000210
3641.596041,0.000360
3642.078244,0.000396
3642.560447,0.000259
3643.042650,0.000195
3643.524852,0.000163
3644.007055,0.000126
3644.489258,0.000081
3644.971461,0.000037
3645.453664,0.000051
3645.935867,-0.000088
3646.418070,-0.000271
3646.900273,-0.000339
3647.382475,-0.000515
3647.864678,-0.000673
3648.346881,-0.000536
3648.829084,-0.000256
3649.311287,-0.000229
3649.793490,-0.000346
3650.275693,-0.000255
3650.757895,-0.000258
3651.240098,-0.000348
3651.722301,-0.000265
3652.204504,-0.000178
3652.686707,-0.000137
3653.168910,0.000011
3653.651113,0.000243
3654.133316,0.000344
3654.615518,0.000272
3655.097721,0.000120
3655.579924,-0.000125
3656.062127,-0.000377
3656.544330,-0.000470
3657.026533,-0.000334
3657.508736,-0.000057
3657.990938,0.000187
3658.473141,0.000317
3658.955344,0.000334
3659.437547,0.000292
3659.919750,0.000275
3660.401953,0.000282
3660.884156,0.000200
3661.366359,0.000070
3661.848561,0.000117
3662.330764,0.000286
3662.812967,0.000265
3663.295170,0.000227
3663.777373,0.000394
3664.259576,0.000367
3664.741779,0.000131
3665.223981,-0.000006
3665.706184,-0.000058
3666.188387,0.000081
3666.670590,0.000212
3667.152793,0.000116
3667.634996,0.000107
3668.117199,0.000072
3668.599401,-0.000213
3669.081604,-0.000404
3669.563807,-0.000289
3670.046010,-0.000142
3670.528213,-0.000224
3671.010416,-0.000469
3671.492619,-0.000514
3671.974822,-0.000124
3672.457024,0.000239
3672.939227,0.000119
3673.421430,-0.000119
3673.903633,-0.000087
3674.385836,-0.000052
3674.868039,-0.000239
3675.350242,-0.000435
3675.832444,-0.000314
3676.314647,-0.000265
3676.796850,-0.000395
3677.279053,-0.000078
3677.761256,0.000295
3678.243459,0.000296
3678.725662,0.000249
3679.207865,0.000105
3679.690067,-0.000157
3680.172270,-0.000123
3680.654473,0.000209
3681.136676,0.000489
3681.618879,0.000461
3682.101082,0.000308
3682.583285,0.000343
3683.065487,0.000375
3683.547690,0.000322
3684.029893,0.000333
3684.512096,0.000197
3684.994299,-0.000040
3685.476502,0.000007
3685.958705,0.000181
3686.440908,0.000176
3686.923110,0.000097
3687.405313,0.000029
3687.887516,-0.000145
3688.369719,-0.000408
3688.851922,-0.000492
3689.334125,-0.000167
3689.816328,0.000218
3690.298530,0.000271
3690.780733,0.000188
3691.262936,0.000133
3691.745139,-0.000099
3692.227342,-0.000137
3692.709545,0.000142
3693.191748,0.000222
3693.673951,0.000222
3694.156153,0.000332
3694.638356,0.000313
3695.120559,0.000202
3695.602762,0.000127
3696.084965,0.000111
3696.567168,0.000192
3697.049371,0.000272
3697.531573,0.000366
3698.013776,0.000435
3698.495979,0.000277
3698.978182,0.000155
3699.460385,0.000167
3699.942588,0.000031
3700.424791,-0.000056
3700.906993,0.000020
3701.389196,0.000139
3701.871399,0.000174
3702.353602,-0.000030
3702.835805,-0.000074
3703.318008,0.000212
3703.800211,0.000432
3704.282414,0.000430
3704.764616,0.000305
3705.246819,0.000252
3705.729022,0.000330
3706.211225,0.000380
3706.693428,0.000306
3707.175631,0.000235
3707.657834,0.000243
3708.140036,0.000174
3708.622239,0.000030
3709.104442,-0.000122
3709.586645,-0.000319
3710.068848,-0.000442
3710.551051,-0.000309
3711.033254,-0.000026
3711.515457,0.000005
3711.997659,-0.000234
3712.479862,-0.000336
3712.962065,-0.000169
3713.444268,0.000152
3713.926471,0.000273
3714.408674,0.000128
3714.890877,0.000052
3715.373079,0.000025
3715.855282,0.000038
3716.337485,0.000109
3716.819688,0.000063
3717.301891,0.000074
3717.784094,0.000263
3718.266297,0.000435
3718.748500,0.000319
3719.230702,-0.000058
3719.712905,-0.000186
3720.195108,-0.000019
3720.677311,0.000156
3721.159514,0.000283
3721.641717,0.000210
3722.123920,0.000066
3722.606122,-0.000031
3723.088325,-0.000198
3723.570528,-0.000206
3724.052731,-0.000099
3724.534934,-0.000092
3725.017137,-0.000081
3725.499340,-0.000020
3725.981542,0.000097
3726.463745,0.000056
3726.945948,-0.000129
3727.428151,-0.000016
3727.910354,0.000184
3728.392557,0.000124
3728.874760,0.000028
3729.356963,0.000121
3729.839165,0.000231
3730.321368,0.000078
3730.803571,-0.000176
3731.285774,-0.000286
3731.767977,-0.000299
3732.250180,-0.000374
3732.732383,-0.000539
3733.214585,-0.000462
3733.696788,-0.000229
3734.178991,-0.000237
3734.661194,-0.000490
3735.143397,-0.000825
3735.625600,-0.000911
3736.107803,-0.000552
3736.590006,-0.000363
3737.072208,-0.000577
3737.554411,-0.000463
3738.036614,0.000020
3738.518817,0.000223
3739.001020,0.000174
3739.483223,0.000254
3739.965426,0.000381
3740.447628,0.000269
3740.929831,0.000108
3741.412034,0.000154
3741.894237,0.000200
3742.376440,0.000075
3742.858643,-0.000085
3743.340846,-0.000114
3743.823049,-0.000197
3744.305251,-0.000552
3744.787454,-0.000874
3745.269657,-0.000799
3745.751860,-0.000423
3746.234063,-0.000087
3746.716266,0.000023
3747.198469,-0.000058
3747.680671,-0.000153
3748.162874,-0.000152
3748.645077,-0.000234
3749.127280,-0.000560
3749.609483,-0.000884
3750.091686,-0.000834
3750.573889,-0.000502
3751.056092,-0.000275
3751.538294,-0.000224
3752.020497,-0.000398
3752.502700,-0.000684
3752.984903,-0.000618
3753.467106,-0.000289
3753.949309,-0.000010
3754.431512,0.000205
3754.913714,0.000242
3755.395917,0.000231
3755.878120,0.000212
3756.360323,0.000094
3756.842526,0.000068
3757.324729,0.000081
3757.806932,0.000031
3758.289134,0.000086
3758.771337,0.000179
3759.253540,0.000096
3759.735743,-0.000086
3760.217946,-0.000126
3760.700149,-0.000076
3761.182352,-0.000068
3761.664555,0.000014
3762.146757,0.000162
3762.628960,0.000215
3763.111163,0.000130
3763.593366,0.000089
3764.075569,0.000189
3764.557772,0.000200
3765.039975,0.000069
3765.522177,-0.000073
3766.004380,-0.000232
3766.486583,-0.000307
3766.968786,-0.000194
3767.450989,0.000028
3767.933192,0.000209
3768.415395,0.000162
3768.897598,-0.000002
3769.379800,-0.000156
3769.862003,-0.000398
3770.344206,-0.000446
3770.826409,-0.000164
3771.308612,0.000007
3771.790815,0.000017
3772.273018,0.000110
3772.755220,0.000344
3773.237423,0.000430
3773.719626,0.000296
3774.201829,0.000288
3774.684032,0.000253
3775.166235,0.000131
3775.648438,0.000207
3776.130641,0.000239
3776.612843,0.000167
3777.095046,0.000310
3777.577249,0.000578
3778.059452,0.000585
3778.541655,0.000348
3779.023858,0.000191
3779.506061,0.000038
3779.988263,-0.000097
3780.470466,0.000009
3780.952669,0.000128
3781.434872,0.000143
3781.917075,0.000160
3782.399278,0.000147
3782.881481,0.000144
3783.363684,0.000127
3783.845886,0.000071
3784.328089,0.000132
3784.810292,0.000185
3785.292495,0.000148
3785.774698,0.000279
3786.256901,0.000335
3786.739104,0.000138
3787.221306,0.000125
3787.703509,0.000347
3788.185712,0.000514
3788.667915,0.000520
3789.150118,0.000393
3789.632321,0.000303
3790.114524,0.000249
3790.596726,0.000216
3791.078929,0.000334
3791.561132,0.000402
3792.043335,0.000339
3792.525538,0.000299
3793.007741,0.000179
3793.489944,0.000130
3793.972147,0.000168
3794.454349,0.000037
3794.936552,-0.000031
3795.418755,-0.000002
3795.900958,0.000081
3796.383161,0.000215
3796.865364,0.000046
3797.347567,-0.000052
3797.829769,0.000116
3798.311972,0.000012
3798.794175,-0.000031
3799.276378,0.000151
3799.758581,0.000120
3800.240784,0.000021
3800.722987,-0.000078
3801.205190,-0.000252
3801.687392,-0.000327
3802.169595,-0.000333
3802.651798,-0.000238
3803.134001,-0.000058
3803.616204,-0.000028
3804.098407,-0.000123
3804.580610,-0.000145
3805.062812,0.000001
3805.545015,0.000099
3806.027218,-0.000032
3806.509421,-0.000056
3806.991624,-0.000085
3807.473827,-0.000353
3807.956030,-0.000293
3808.438233,-0.000017
3808.920435,-0.000034
3809.402638,-0.000064
3809.884841,0.000153
3810.367044,0.000316
3810.849247,0.000244
3811.331450,0.000130
3811.813653,0.000095
3812.295855,0.000120
3812.778058,0.000108
3813.260261,0.000009
3813.742464,0.000021
3814.224667,0.000127
3814.706870,0.000051
3815.189073,-0.000135
3815.671275,-0.000215
3816.153478,-0.000266
3816.635681,-0.000345
3817.117884,-0.000282
3817.600087,-0.000052
3818.082290,0.000034
3818.564493,-0.000127
3819.046696,-0.000118
3819.528898,-0.000040
3820.011101,-0.000175
3820.493304,-0.000257
3820.975507,-0.000316
3821.457710,-0.000366
3821.939913,-0.000330
3822.422116,-0.000308
3822.904318,-0.000144
3823.386521,0.000062
3823.868724,0.000108
3824.350927,-0.000047
3824.833130,-0.000164
3825.315333,-0.000039
3825.797536,-0.000068
3826.279739,-0.000203
3826.761941,-0.000154
3827.244144,-0.000046
3827.726347,0.000168
3828.208550,0.000289
3828.690753,0.000247
3829.172956,0.000236
3829.655159,0.000224
3830.137361,0.000250
3830.619564,0.000141
3831.101767,-0.000089
3831.583970,-0.000288
3832.066173,-0.000507
3832.548376,-0.000460
3833.030579,-0.000243
3833.512782,-0.000031
3833.994984,0.000180
3834.477187,0.000115
3834.959390,-0.000129
3835.441593,-0.000360
3835.923796,-0.000356
3836.405999,-0.000143
3836.888202,-0.000180
3837.370404,-0.000386
3837.852607,-0.000444
3838.334810,-0.000308
3838.817013,-0.000155
3839.299216,-0.000070
3839.781419,-0.000099
3840.263622,-0.000257
3840.745825,-0.000146
3841.228027,-0.000061
3841.710230,-0.000164
3842.192433,0.000041
3842.674636,0.000126
3843.156839,0.000020
3843.639042,-0.000017
3844.121245,-0.000154
3844.603447,-0.000071
3845.085650,0.000157
3845.567853,0.000186
3846.050056,0.000131
3846.532259,0.000030
3847.014462,-0.000058
3847.496665,-0.000049
3847.978867,0.000011
3848.461070,0.000071
3848.943273,0.000127
3849.425476,0.000128
3849.907679,-0.000002
3850.389882,-0.000121
3850.872085,-0.000172
3851.354288,-0.000223
3851.836490,-0.000390
3852.318693,-0.000805
3852.800896,-0.000868
3853.283099,-0.000545
3853.765302,-0.000578
3854.247505,-0.000649
3854.729708,-0.000596
3855.211910,-0.000513
3855.694113,-0.000200
3856.176316,-0.000002
3856.658519,0.000001
3857.140722,-0.000001
3857.622925,0.000082
3858.105128,0.000249
3858.587331,0.000250
3859.069533,0.000115
3859.551736,0.000058
3860.033939,0.000066
3860.516142,0.000019
3860.998345,-0.000052
3861.480548,-0.000082
3861.962751,-0.000151
3862.444953,-0.000197
3862.927156,-0.000232
3863.409359,-0.000358
3863.891562,-0.000373
3864.373765,-0.000239
3864.855968,-0.000325
3865.338171,-0.000579
3865.820374,-0.000576
3866.302576,-0.000420
3866.784779,-0.000198
3867.266982,0.000089
3867.749185,0.000124
3868.231388,-0.000014
3868.713591,-0.000105
3869.195794,-0.000184
3869.677996,-0.000325
3870.160199,-0.000471
3870.642402,-0.000501
3871.124605,-0.000404
3871.606808,-0.000193
3872.089011,-0.000071
3872.571214,-0.000084
3873.053417,-0.000035
3873.535619,0.000050
3874.017822,0.000091
3874.500025,0.000017
3874.982228,-0.000046
3875.464431,0.000022
3875.946634,0.000153
3876.428837,0.000298
3876.911039,0.000224
3877.393242,0.000053
3877.875445,-0.000035
3878.357648,-0.000178
3878.839851,-0.000170
3879.322054,-0.000055
3879.804257,-0.000104
3880.286459,-0.000264
3880.768662,-0.000372
3881.250865,-0.000174
3881.733068,-0.000006
3882.215271,-0.000194
3882.697474,-0.000212
3883.179677,0.000014
3883.661880,0.000105
3884.144082,0.000072
3884.626285,-0.000106
3885.108488,-0.000312
3885.590691,-0.000393
3886.072894,-0.000473
3886.555097,-0.000445
3887.037300,-0.000342
3887.519502,-0.000339
3888.001705,-0.000286
3888.483908,-0.000185
3888.966111,-0.000130
3889.448314,-0.000065
3889.930517,-0.000080
3890.412720,-0.000188
3890.894923,-0.000295
3891.377125,-0.000499
3891.859328,-0.000588
3892.341531,-0.000314
3892.823734,-0.000083
3893.305937,-0.000080
3893.788140,-0.000078
3894.270343,-0.000033
3894.752545,-0.000081
3895.234748,-0.000025
3895.716951,0.000167
3896.199154,0.000092
3896.681357,-0.000023
3897.163560,0.000057
3897.645763,0.000004
3898.127966,-0.000148
3898.610168,-0.000283
3899.092371,-0.000446
3899.574574,-0.000500
3900.056777,-0.000319
3900.538980,-0.000114
3901.021183,-0.000069
3901.503386,-0.000100
3901.985588,-0.000197
3902.467791,-0.000154
3902.949994,0.000065
3903.432197,0.000037
3903.914400,-0.000129
3904.396603,-0.000164
3904.878806,-0.000238
3905.361008,-0.000169
3905.843211,0.000164
3906.325414,0.000236
3906.807617,0.000209
3907.289820,0.000399
3907.772023,0.000305
3908.254226,0.000125
3908.736429,0.000264
3909.218631,0.000371
3909.700834,0.000233
3910.183037,0.000062
3910.665240,0.000081
3911.147443,0.000091
3911.629646,-0.000033
3912.111849,-0.000109
3912.594051,-0.000117
3913.076254,-0.000060
3913.558457,0.000030
3914.040660,0.000111
3914.522863,0.000141
3915.005066,0.000091
3915.487269,0.000065
3915.969472,0.000057
3916.451674,0.000015
3916.933877,-0.000016
3917.416080,-0.000135
3917.898283,-0.000400
3918.380486,-0.000358
3918.862689,0.000031
3919.344892,0.000139
3919.827094,0.000003
3920.309297,-0.000198
3920.791500,-0.000422
3921.273703,-0.000204
3921.755906,0.000164
3922.238109,0.000261
3922.720312,0.000319
3923.202515,0.000227
3923.684717,0.000022
3924.166920,-0.000003
3924.649123,-0.000019
3925.131326,-0.000107
3925.613529,-0.000017
3926.095732,0.000147
3926.577935,0.000062
3927.060137,0.000058
3927.542340,0.000322
3928.024543,0.000324
3928.506746,0.000100
3928.988949,0.000003
3929.471152,-0.000002
3929.953355,0.000054
3930.435558,0.000038
3930.917760,-0.000058
3931.399963,-0.000067
3931.882166,-0.000057
3932.364369,-0.000117
3932.846572,-0.000118
3933.328775,0.000006
3933.810978,0.000006
3934.293180,-0.000073
3934.775383,0.000007
3935.257586,0.000086
3935.739789,0.000148
3936.221992,0.000238
3936.704195,0.000241
3937.186398,0.000244
3937.668600,0.000211
3938.150803,0.000026
3938.633006,-0.000125
3939.115209,-0.000095
3939.597412,-0.000004
3940.079615,0.000096
3940.561818,0.000122
3941.044021,-0.000060
3941.526223,-0.000185
3942.008426,-0.000086
3942.490629,-0.000054
3942.972832,-0.000134
3943.455035,-0.000133
3943.937238,-0.000133
3944.419441,-0.000106
3944.901643,0.000082
3945.383846,0.000118
3945.866049,0.000016
3946.348252,0.000081
3946.830455,0.000169
3947.312658,0.000190
3947.794861,0.000134
3948.277064,0.000132
3948.759266,0.000262
3949.241469,0.000219
3949.723672,0.000099
3950.205875,0.000132
3950.688078,0.000210
3951.170281,0.000248
3951.652484,0.000231
3952.134686,0.000221
3952.616889,0.000209
3953.099092,0.000125
3953.581295,0.000144
3954.063498,0.000288
3954.545701,0.000273
3955.027904,0.000155
3955.510107,0.000038
3955.992309,-0.000053
3956.474512,0.000058
3956.956715,0.000184
3957.438918,0.000278
3957.921121,0.000386
3958.403324,0.000237
3958.885527,0.000119
3959.367729,0.000266
3959.849932,0.000255
3960.332135,0.000110
3960.814338,0.000155
3961.296541,0.000204
3961.778744,0.000163
3962.260947,0.000202
3962.743150,0.000214
3963.225352,0.000166
3963.707555,0.000052
3964.189758,-0.000125
3964.671961,-0.000023
3965.154164,0.000256
3965.636367,0.000274
3966.118570,0.000131
3966.600772,0.000164
3967.082975,0.000304
3967.565178,0.000244
3968.047381,0.000197
3968.529584,0.000344
3969.011787,0.000315
3969.493990,0.000203
3969.976192,0.000250
3970.458395,0.000203
3970.940598,0.000098
3971.422801,0.000199
3971.905004,0.000314
3972.387207,0.000280
3972.869410,0.000256
3973.351613,0.000196
3973.833815,0.000132
3974.316018,0.000162
3974.798221,0.000071
3975.280424,-0.000011
3975.762627,0.000055
3976.244830,0.000027
3976.727033,0.000006
3977.209235,0.000113
3977.691438,0.000124
3978.173641,0.000010
3978.655844,0.000090
3979.138047,0.000259
3979.620250,0.000183
3980.102453,0.000140
3980.584656,0.000206
3981.066858,0.000084
3981.549061,-0.000075
3982.031264,-0.000051
3982.513467,0.000003
3982.995670,0.000034
3983.477873,0.000131
3983.960076,0.000029
3984.442278,-0.000080
3984.924481,0.000154
3985.406684,0.000197
3985.888887,0.000058
3986.371090,0.000095
3986.853293,0.000074
3987.335496,0.000115
3987.817699,0.000307
3988.299901,0.000386
3988.782104,0.000301
3989.264307,0.000159
3989.746510,0.000104
3990.228713,0.000156
3990.710916,0.000227
3991.193119,0.000274
3991.675321,0.000257
3992.157524,0.000152
3992.639727,0.000054
3993.121930,0.000131
3993.604133,0.000238
3994.086336,0.000196
3994.568539,0.000161
3995.050742,0.000131
3995.532944,0.000056
3996.015147,0.000056
3996.497350,0.000143
3996.979553,0.000145
3997.461756,0.000008
3997.943959,0.000002
3998.426162,0.000096
3998.908364,0.000034
3999.390567,-0.000062
3999.872770,-0.000039
4000.354973,0.000098
